,time,magX,magY,magZ,linear_accX,linear_accY,linear_accZ,angular_velX,angular_velY,angular_velZ,orientationX,orientationY,orientationZ,orientationW
0,0.0,0.4389,0.0767,0.5091,-9.743,-0.581,0.165,-0.001913,0.370446,-0.372445,-0.01723454262815223,-0.05905076598142668,0.703474598021282,0.7080532942626571
1,0.008456707000732422,0.4374,0.0818,0.5113,-9.699,-2.694,2.269,-0.177396,0.105381,-0.591055,0.4200219033713074,0.45142746551008095,0.7822129127403512,-0.08909435006634558
2,0.047835588455200195,0.4411,0.0853,0.5111,-9.425,-3.331,2.936,-0.811187,-0.093493,-0.636712,-0.6822461057749973,-0.18978468407781465,-0.6720609333643655,0.21646276051495147
3,0.058739423751831055,0.4419,0.0854,0.5073,-9.329,-3.332,2.135,-1.395979,-0.200884,-0.547777,0.5834483023531686,-0.11446820885438333,0.7728979994062936,-0.22161631292985573
4,0.08544206619262695,0.4463,0.08,0.5021,-8.607,-2.758,0.864,-1.77147,-0.280777,-0.311569,-0.6806830704870924,0.5509623067406592,-0.10324466310113839,-0.47164778558200426
5,0.12461090087890625,0.4494,0.07,0.4969,-7.841,-0.093,0.142,-1.469679,-0.47963,-0.204353,-0.2827080729930642,-0.29461152627918424,-0.19722749533059958,0.8912808250678436
6,0.13372206687927246,0.456,0.0668,0.4862,-7.356,-0.023,-1.135,-0.281649,-0.719065,-0.198072,-0.43641504980477913,0.5918210871985361,-0.6545922849832785,-0.1754954286909071
7,0.16880464553833008,0.4618,0.0729,0.4755,-8.009,-0.409,-0.965,0.766273,-0.85886,-0.041274,-0.6366962284830289,0.3161584092216172,-0.6996354482225595,-0.07191670532193145
8,0.18596291542053223,0.4695,0.083,0.4633,-8.608,-1.021,-1.336,1.299581,-0.783709,0.131046,-0.6394763853540306,-0.298591364751321,-0.655093758460627,0.2697504719113881
9,0.209061861038208,0.4761,0.0932,0.4524,-8.791,-0.837,-1.082,1.557624,-0.64668,0.395492,-0.23992547914199736,-0.5203613120861239,-0.6539010090375327,0.4940377917955135
10,0.25082969665527344,0.4814,0.0992,0.4417,-9.217,-1.132,-0.444,1.740021,-0.580487,0.56409,0.0333271731176474,-0.14743981108618087,-0.3528543397412409,0.9233875765704403
11,0.25844883918762207,0.4846,0.102,0.4307,-9.673,-1.688,-0.026,1.571482,-0.439398,0.627112,-0.2878501943450084,0.1297639309653395,0.5111263367258223,0.7994081909395255
12,0.2847716808319092,0.4912,0.1111,0.42,-11.021,-2.555,0.474,1.070945,-0.573246,0.434888,-0.48729335870951307,0.005136908675817897,0.8650009083682741,-0.11955008677921783
13,0.3128025531768799,0.4936,0.1106,0.4117,-10.094,-1.443,-0.252,0.046133,-0.520463,0.410119,-0.5316244425070362,-0.2123658007227331,0.7332842932283393,-0.36683833512473907
14,0.33501529693603516,0.4972,0.102,0.4049,-10.795,0.995,-4.781,-0.846005,-0.295008,0.744068,-0.7017195775057236,-0.06571967128702022,0.7093335252507269,0.010793947678720273
15,0.36032772064208984,0.4977,0.0928,0.4002,-14.285,-0.093,-10.062,-0.856912,0.021607,0.295929,-0.6618887335872177,0.4813064061657757,0.44268896898448795,0.36643406565649145
16,0.384838342666626,0.4967,0.0909,0.4013,-9.926,2.728,-5.561,0.854768,0.185214,-0.138778,-0.38556605538897853,0.2766246954251389,0.8252710619525986,0.3061784922498026
17,0.40917348861694336,0.4977,0.1014,0.4033,-8.069,-2.492,0.279,1.219539,-0.11919,-0.233035,-0.5168150705914212,-0.3524620149913803,0.7287602658720846,-0.27853399376709687
18,0.43415260314941406,0.4999,0.1069,0.3998,-9.216,-4.155,3.947,0.15758,-0.142359,-0.031071,-0.42295714454286903,-0.544165428150343,0.4559185498965671,-0.5631425366160046
19,0.4588959217071533,0.4983,0.1061,0.3995,-10.982,-1.825,3.204,-0.281219,-0.058649,0.206738,-0.5477901294952808,-0.4485164853651665,0.5006513215633241,-0.4981035942453325
20,0.48385119438171387,0.4988,0.1015,0.3976,-10.727,-0.922,0.321,-0.015966,0.022713,0.290355,-0.6030402673133358,-0.5413416120892484,0.5152248805876757,-0.2789892783651189
21,0.5108642578125,0.4991,0.0977,0.3978,-10.567,-0.869,-0.263,0.156095,0.015337,0.345873,-0.35838999225605667,-0.20415328954289658,0.6449511121466941,-0.6433631251169593
22,0.5525777339935303,0.4998,0.0939,0.4005,-9.503,-0.827,0.535,0.103155,-0.006559,0.362985,-0.43805548078203993,-0.8034668582097907,0.40016695620132736,-0.049140723233064953
23,0.5594491958618164,0.4977,0.0898,0.3999,-9.086,-0.797,0.764,-0.162465,-0.039266,0.330389,-0.7530749845284773,-0.0679823567099739,0.03034929740545306,-0.6537089467037964
24,0.5840697288513184,0.4992,0.0844,0.3985,-9.265,0.209,0.497,-0.314103,-0.06438,0.243802,0.09059036440212088,-0.3163285303187842,0.9294884510638137,-0.1666759314443495
25,0.6133763790130615,0.4974,0.0787,0.3976,-9.471,0.241,0.099,-0.171162,-0.107254,0.159583,-0.9697154675365142,-0.1362751188093596,-0.07729275750402642,-0.1873681767306241
26,0.6514780521392822,0.5003,0.0766,0.3963,-9.392,-0.073,0.109,-0.011886,-0.179274,0.102741,-0.007533463884884827,-0.3046125250666692,0.9521554880643802,0.02354534016073723
27,0.6604228019714355,0.5,0.0744,0.3949,-9.414,-0.412,0.554,0.048003,-0.221184,0.086099,-0.8540702190140035,0.13263552294433895,0.19140766707767837,-0.46511824736354374
28,0.683682918548584,0.5018,0.0747,0.3914,-9.867,-0.251,1.151,0.102603,-0.225219,0.097083,-0.40692416385513985,-0.5530286259619699,0.7141410548653983,0.1362887284156213
29,0.7094728946685791,0.5018,0.0747,0.3904,-10.205,-0.075,1.676,0.15872,-0.195197,0.099863,-0.525076813599332,0.025864717020114947,0.6200188489436191,-0.5824104937142456
30,0.7420895099639893,0.5042,0.0731,0.3868,-10.017,0.347,1.664,0.09194,-0.133104,0.049951,-0.8187484580768045,-0.3631431580585972,0.315913856088533,-0.3130118922395079
31,0.7591080665588379,0.504,0.0745,0.3855,-9.806,0.434,1.261,0.091776,-0.086319,-0.048232,-0.739043148252947,-0.4802513930756114,0.376144307437559,-0.2858133734653197
32,0.7877693176269531,0.5053,0.0748,0.3842,-9.575,-0.277,0.879,0.056366,-0.089865,-0.092713,-0.698208028748287,-0.4101501329683932,0.3935178958712731,-0.4352310681080642
33,0.8095982074737549,0.5055,0.0761,0.3839,-9.514,-0.6,0.911,0.013057,-0.097854,-0.084237,-0.6097067279842419,-0.3828234086283448,0.47146628243437855,-0.5093363212892162
34,0.8338439464569092,0.5058,0.0778,0.3842,-9.551,-0.335,1.068,-0.026924,-0.113307,-0.070995,-0.560175548087434,-0.4176935424621663,0.5372633155162748,-0.47231725536000585
35,0.8603017330169678,0.5071,0.0791,0.3829,-9.714,-0.514,1.013,-0.007136,-0.120511,-0.068694,-0.5500952592314232,-0.47642129190918137,0.5593285004329511,-0.396950358344877
36,0.884347677230835,0.5071,0.0789,0.3799,-9.634,-0.432,1.046,0.046576,-0.128215,-0.061557,-0.5515135853133637,-0.5492097551274725,0.5354720068983196,-0.327827912045187
37,0.9111814498901367,0.5079,0.0816,0.3781,-9.625,-0.506,1.124,0.14788,-0.125736,-0.047185,-0.5115464009438822,-0.647432046306997,0.48555711779137767,-0.28876687908800325
38,0.9520859718322754,0.5111,0.0822,0.3778,-9.713,-0.669,1.222,0.166375,-0.109506,-0.032138,-0.40113464019610245,-0.7487553822294108,0.45043467309991186,-0.2748908570444057
39,0.9592289924621582,0.5087,0.0816,0.3767,-9.649,-0.323,1.434,0.111624,-0.093056,-0.0375,-0.29428039709769627,-0.8133748806512057,0.4327232074019231,-0.2541081997603607
40,1.0012171268463135,0.5101,0.0857,0.3743,-9.669,-0.078,1.35,0.082034,-0.08145,-0.074142,-0.3069711729400168,-0.8697457725842074,0.3298168481158484,-0.2013252014891778
41,1.0091452598571777,0.5114,0.0868,0.3736,-9.677,-0.342,1.216,0.063447,-0.074672,-0.095203,-0.45944560362645726,-0.8610206173594517,0.09919020406696696,-0.19420230999507257
42,1.034083366394043,0.5122,0.0876,0.373,-9.636,-0.665,1.173,0.066343,-0.070181,-0.091875,-0.6166357297392556,-0.7072739760349777,-0.13136741667850232,-0.3197913405141334
43,1.0595300197601318,0.5109,0.0887,0.3736,-9.573,-0.855,1.353,0.045615,-0.060362,-0.06752,-0.6652897233469285,-0.5089419098702391,-0.2472419818937796,-0.48707198520941125
44,1.0918538570404053,0.513,0.0917,0.3709,-9.639,-0.628,1.36,0.055871,-0.058771,-0.036869,-0.6610063867916022,-0.3993081188070897,-0.2931681098639319,-0.5636275740542362
45,1.1091325283050537,0.513,0.0925,0.3704,-9.683,-0.758,1.454,0.055322,-0.048051,-0.006761,-0.6581015780859167,-0.41913732746044535,-0.347492523162421,-0.5200722642060004
46,1.1352059841156006,0.5133,0.0923,0.3688,-9.658,-0.546,1.588,0.008744,-0.032981,0.009815,-0.658018916898959,-0.5121698029426744,-0.3713423269522225,-0.40840919941951787
47,1.1604607105255127,0.5122,0.0933,0.3696,-9.654,-0.422,1.535,-0.026906,-0.019201,0.007414,-0.6527316455974106,-0.5856775677624765,-0.3604335230269797,-0.31782205860179963
48,1.1855154037475586,0.5138,0.0912,0.3701,-9.632,-0.457,1.401,-0.030599,-0.011803,0.004496,-0.6550749403048209,-0.6143744267316628,-0.34475314919483613,-0.2730680363627699
49,1.2098352909088135,0.514,0.0901,0.3712,-9.6,-0.577,1.269,-0.03369,-0.011195,0.004963,-0.658091149818111,-0.6327033172272669,-0.32924038163564795,-0.24125364660684812
50,1.2342605590820312,0.513,0.0903,0.3696,-9.645,-0.522,1.304,-0.021914,-0.015647,0.01222,-0.6480738052293054,-0.6730802671400662,-0.302888609732344,-0.1876746841123571
51,1.260810136795044,0.5125,0.0909,0.3682,-9.664,-0.535,1.332,0.000735,-0.01425,0.016509,-0.6023378768659827,-0.7503199227372235,-0.2527159979539661,-0.10170408061783075
52,1.2852146625518799,0.5125,0.0909,0.3709,-9.605,-0.485,1.273,0.003211,-0.012606,0.021856,-0.5136734652261863,-0.8419716058899042,-0.16485095294907554,-0.006895600733783258
53,1.3128080368041992,0.513,0.089,0.3698,-9.576,-0.441,1.444,0.03811,-0.015265,0.012919,-0.40414961044616143,-0.9099180999211094,-0.07027091409926023,0.06143404954769151
54,1.3341035842895508,0.5138,0.0906,0.3701,-9.557,-0.333,1.518,0.035791,-0.011433,0.003198,-0.3156642907799125,-0.944326785566671,-0.0076969506897777845,0.09243232409613275
55,1.3705604076385498,0.513,0.0906,0.3704,-9.686,-0.429,1.531,0.047505,-0.002371,-0.011358,-0.30377598104020315,-0.9479748180545908,-0.02405154339593498,0.09211634457413521
56,1.3885252475738525,0.5148,0.0942,0.3691,-9.67,-0.563,1.458,0.020633,0.009623,-0.009717,-0.34003854262598143,-0.93421394515956,-0.08077641804370665,0.07136711067597754
57,1.4096074104309082,0.5138,0.0931,0.368,-9.656,-0.543,1.486,0.008507,0.01638,-0.006417,-0.39438023369612507,-0.9073248879135902,-0.14135764683033122,0.03526747403729944
58,1.4335615634918213,0.5135,0.0917,0.3709,-9.62,-0.523,1.383,-0.01393,0.022285,-0.002297,-0.4456955134039711,-0.8751345431872282,-0.1881814820833513,-0.009097826826528557
59,1.4626929759979248,0.5132,0.0906,0.372,-9.603,-0.507,1.313,-0.007487,0.023223,0.001877,-0.48423901938684644,-0.8465541464035229,-0.21521674675720676,-0.050402393053430625
60,1.4933900833129883,0.5135,0.0898,0.3714,-9.626,-0.459,1.353,-0.010545,0.021219,-0.000551,-0.5130263102450137,-0.8213648118826761,-0.23355125418373693,-0.08727922127589456
61,1.5083224773406982,0.5119,0.0911,0.3706,-9.625,-0.423,1.424,0.001705,0.021433,-0.007665,-0.5485538784132663,-0.7819165274592192,-0.2621850384342422,-0.13767422483934585
62,1.5333898067474365,0.5138,0.0912,0.3712,-9.634,-0.389,1.362,0.018713,0.022256,-0.017763,-0.5914145608276523,-0.7096843128291064,-0.3111422249886781,-0.22308632677600176
63,1.5753545761108398,0.513,0.0906,0.3698,-9.612,-0.427,1.304,0.026331,0.019996,-0.026452,-0.626670944562084,-0.5923990319645436,-0.36244129342570774,-0.3535296635206684
64,1.5876586437225342,0.5122,0.0941,0.3699,-9.587,-0.451,1.361,0.025416,0.018837,-0.03702,-0.626724156552119,-0.4249694746428818,-0.3814053020151989,-0.5302336964117643
65,1.611192226409912,0.5132,0.0941,0.372,-9.691,-0.534,1.371,0.026367,0.017686,-0.036802,-0.5598289564516523,-0.24533670664485666,-0.33512173233898496,-0.717004089531592
66,1.6341612339019775,0.513,0.0941,0.3704,-9.648,-0.642,1.31,0.012255,0.0224,-0.03091,-0.43524397568823586,-0.10457170051381054,-0.224515256306687,-0.865575150269629
67,1.6604974269866943,0.5125,0.0922,0.3725,-9.617,-0.602,1.313,-0.001855,0.019967,-0.019268,-0.30222528271148763,-0.029899628343821715,-0.09283255578411223,-0.9482341521488522
68,1.6850714683532715,0.5127,0.0949,0.3707,-9.644,-0.6,1.246,-0.003287,0.023626,-0.009939,-0.19448023088877697,-0.007713571839598046,0.019178970925772344,-0.9806885885321354
69,1.7104215621948242,0.512,0.0957,0.372,-9.596,-0.539,1.233,0.007527,0.021653,-0.006359,-0.11901331473372442,-0.013033689999152344,0.09584171287949599,-0.9881701877275096
70,1.7347183227539062,0.5125,0.0944,0.3699,-9.645,-0.539,1.322,0.007672,0.020775,-0.001457,-0.06520480792807787,-0.028164005714296426,0.14519268870073987,-0.9868506497707936
71,1.7594091892242432,0.5125,0.0941,0.3734,-9.672,-0.523,1.302,-0.000929,0.020881,-0.00393,-0.016663805601469003,-0.04795429770730347,0.19368563837193162,-0.9797492415933441
72,1.807227373123169,0.512,0.0955,0.3718,-9.67,-0.527,1.285,-0.008915,0.020168,-0.006392,0.03718593306038944,-0.07483311687659215,0.2545706234960879,-0.9634370807965488
73,1.8085010051727295,0.5122,0.0952,0.3723,-9.625,-0.527,1.309,-0.011426,0.020849,-0.010775,0.09958052552890716,-0.11324030001215868,0.32734116059424073,-0.9327958608234487
74,1.8494935035705566,0.513,0.0952,0.3723,-9.605,-0.549,1.304,-0.019086,0.017881,-0.010704,0.1603621622858446,-0.165641115020839,0.40156630884392824,-0.8863359958408124
75,1.8598155975341797,0.5119,0.0947,0.3734,-9.641,-0.564,1.234,-0.018625,0.014516,-0.006304,0.1995407674764344,-0.21518539515801577,0.4560111760292062,-0.8401979142809535
76,1.8868286609649658,0.5133,0.0955,0.3731,-9.634,-0.591,1.213,-0.01837,0.011881,0.000116,0.21874386346598987,-0.2557301343602817,0.4908175249964787,-0.8036487900397633
77,1.9100029468536377,0.5122,0.096,0.3734,-9.623,-0.548,1.221,-0.019144,0.007688,0.003173,0.21849754914072894,-0.27235471408277045,0.5053057613498518,-0.7891437247314546
78,1.9342420101165771,0.5117,0.0944,0.3739,-9.652,-0.576,1.269,-0.019337,0.007114,0.005286,0.21127861207573015,-0.27852043824383155,0.5131942925772284,-0.7838490490049568
79,1.9599826335906982,0.5119,0.0938,0.3747,-9.634,-0.549,1.277,-0.020897,0.004653,0.006357,0.19320375139769008,-0.271363215793057,0.5125397694869123,-0.791414746043194
80,2.0107574462890625,0.5122,0.0949,0.3736,-9.672,-0.549,1.229,-0.021981,0.003435,0.009065,0.1667863202758399,-0.2527492409369916,0.5033474622426425,-0.8092845462681905
81,2.0130562782287598,0.5114,0.0933,0.3739,-9.59,-0.492,1.275,-0.020933,0.005195,0.005601,0.14093082176664218,-0.23818466706517588,0.49503114246861396,-0.8236205047456315
82,2.033780813217163,0.5119,0.0933,0.3731,-9.655,-0.53,1.302,-0.015299,0.003667,0.002792,0.12690150446592807,-0.23217025276243125,0.49509579516480273,-0.8275706226701409
83,2.060067653656006,0.5106,0.093,0.375,-9.64,-0.54,1.241,-0.018558,0.004365,0.002091,0.12231979402958365,-0.2361002821902306,0.5046082106902843,-0.8213799841986675
84,2.08469820022583,0.5119,0.0917,0.3752,-9.634,-0.543,1.265,-0.018505,0.002594,0.002194,0.11407679459410011,-0.23694160148312998,0.5111344974134661,-0.8182827677371854
85,2.1089277267456055,0.5111,0.0933,0.3747,-9.608,-0.555,1.24,-0.017646,0.00339,0.003207,0.10121327914966563,-0.2324300699864796,0.5139383189052094,-0.8195117687078932
86,2.133885622024536,0.5117,0.093,0.3728,-9.617,-0.52,1.28,-0.007746,0.002547,0.003042,0.08582883863854486,-0.2224553114400872,0.5086390460836401,-0.8273048807236526
87,2.1686084270477295,0.5104,0.0922,0.3744,-9.683,-0.567,1.269,-0.002658,0.000275,0.001248,0.07211630712890119,-0.21151995231737264,0.4978681884471232,-0.8379652826639813
88,2.184295654296875,0.5106,0.0941,0.3736,-9.678,-0.518,1.273,-0.012917,0.003957,0.002147,0.06378996296318461,-0.20959173849281798,0.49732294582183934,-0.8394474559731547
89,2.209397315979004,0.5109,0.0933,0.3736,-9.631,-0.462,1.256,-0.011,0.00079,0.001602,0.047542907095523654,-0.199818318560599,0.49203887048694833,-0.8459964902305738
90,2.2339160442352295,0.5114,0.0933,0.3747,-9.603,-0.514,1.234,-0.003626,-9.4e-05,-0.001205,0.035073078531987364,-0.19044120541508558,0.4832266637459735,-0.8538114650713434
91,2.2588508129119873,0.5106,0.0925,0.3733,-9.623,-0.574,1.25,-0.002841,-0.000124,0.001122,0.034551064322152714,-0.19021686759667952,0.48374867795581056,-0.8535871272529357
92,2.2843358516693115,0.5098,0.0922,0.3747,-9.675,-0.569,1.292,-0.004341,0.002696,0.00308,0.032490941800537146,-0.18968259960600337,0.48446395677400256,-0.8533812305731244
93,2.309211492538452,0.5098,0.0919,0.3736,-9.627,-0.569,1.273,-0.002541,0.003015,0.003129,0.020272971547451224,-0.1840040607736449,0.47621370861571966,-0.8596231825456475
94,2.333779811859131,0.5117,0.0917,0.3736,-9.629,-0.503,1.224,-0.000153,0.003434,-0.001757,0.013476633384733858,-0.18247230500165784,0.47286752170672675,-0.8619272273080446
95,2.358837127685547,0.5106,0.0917,0.3739,-9.639,-0.523,1.293,0.003747,0.000754,-0.005787,0.02500115118058921,-0.19023800578922836,0.4831795204829924,-0.8542376686723715
96,2.3834564685821533,0.5093,0.093,0.3747,-9.634,-0.606,1.254,0.0038,0.000416,-0.00728,0.04900058230102548,-0.20503962375001955,0.5009526457807768,-0.8394070182645905
97,2.40885591506958,0.5101,0.0936,0.3733,-9.637,-0.579,1.285,0.001657,0.000905,-0.002229,0.07219697167011643,-0.22508078152278638,0.5227714889031294,-0.819045914134709
98,2.4354240894317627,0.5109,0.0941,0.3731,-9.616,-0.528,1.25,0.004569,-0.001484,-0.005083,0.07647404481344697,-0.22743518304090496,0.5246276300274351,-0.8168174874455233
99,2.459043502807617,0.5088,0.0911,0.373,-9.66,-0.541,1.268,0.013784,-0.002124,-0.004421,0.08344796387891354,-0.22949402791121593,0.5231038597183454,-0.8165361476538066
100,2.485057830810547,0.5109,0.0938,0.3731,-9.662,-0.576,1.229,0.013532,-0.000264,-0.004385,0.09518927426200553,-0.23556859122718382,0.5231991964561061,-0.8134550028860832
101,2.509223222732544,0.5093,0.0917,0.373,-9.601,-0.549,1.26,0.004234,-0.001793,-0.002711,0.10620768548023614,-0.23962811704880285,0.5261280380828531,-0.8090040671144147
102,2.533780097961426,0.5117,0.0925,0.372,-9.639,-0.492,1.287,-0.001441,-0.001221,-0.005542,0.11408058192306139,-0.24348595434286036,0.530956730390913,-0.8036075916256848
103,2.5606319904327393,0.5104,0.093,0.375,-9.663,-0.526,1.242,0.002729,-0.002837,-0.007047,0.12317837168614872,-0.2489280049317529,0.5384237873676149,-0.7955889405378632
104,2.602776050567627,0.5098,0.0938,0.3755,-9.662,-0.549,1.248,0.001014,-0.001529,-0.004005,0.13197458842487403,-0.2553830140243728,0.5462669830156489,-0.7867366823943656
105,2.6095430850982666,0.5106,0.0935,0.3768,-9.637,-0.549,1.278,-0.008101,-0.000898,-0.006434,0.1408821270194413,-0.26318391551773246,0.5571740208958524,-0.774882935247629
106,2.6353566646575928,0.5119,0.0946,0.3742,-9.598,-0.518,1.255,-0.003678,-0.00364,-0.008209,0.15260546908199768,-0.2770561960255871,0.5729383057771221,-0.7561039166829755
107,2.659754514694214,0.5111,0.0936,0.375,-9.623,-0.587,1.253,0.009234,-0.002295,-0.012088,0.1731717664739389,-0.29995395500724303,0.5873888774949504,-0.7314461502851939
108,2.683485507965088,0.5114,0.0949,0.375,-9.633,-0.595,1.249,0.007918,-0.001509,-0.010623,0.19918986028069632,-0.334323836214905,0.6047632461823647,-0.6948470250111709
109,2.7105038166046143,0.5101,0.0949,0.3731,-9.659,-0.579,1.266,0.003581,0.00027,-0.008745,0.21995838819518232,-0.3731407057944134,0.6213476087364489,-0.6529253175205578
110,2.743145704269409,0.5117,0.0952,0.3753,-9.665,-0.552,1.24,0.005065,-0.001923,-0.008469,0.2306191754438508,-0.3938320903286044,0.6278041353508281,-0.6305339389607821
111,2.759535551071167,0.5119,0.0933,0.3769,-9.618,-0.626,1.307,0.008456,-0.00093,-0.005677,0.24300315558118954,-0.42173291470157925,0.632923173205129,-0.6020789581565233
112,2.7957324981689453,0.5112,0.0955,0.3734,-9.613,-0.578,1.319,0.005641,0.001333,-0.004738,0.24987682051244714,-0.4305443629657373,0.6335711865887628,-0.5922674038080477
113,2.811272621154785,0.5101,0.0946,0.3747,-9.624,-0.521,1.264,0.006844,-0.001856,-0.009152,0.25561529127520777,-0.4415535526572375,0.6344339444806494,-0.5806762033119552
114,2.8364245891571045,0.5117,0.0946,0.3742,-9.698,-0.568,1.245,0.011439,-0.001213,-0.008058,0.26343164523315876,-0.45802444337600484,0.6338051024657531,-0.5648968663820223
115,2.8603603839874268,0.5112,0.0952,0.3744,-9.626,-0.588,1.272,0.006419,0.001008,-0.004424,0.2707532982749519,-0.480734026462425,0.632841298219595,-0.5432304654032183
116,2.905726432800293,0.5112,0.0949,0.3742,-9.617,-0.56,1.286,0.006478,0.002063,-0.003197,0.27443893896396804,-0.49352776303453993,0.6316171515492003,-0.5311999527139746
117,2.9083707332611084,0.5112,0.096,0.3747,-9.619,-0.59,1.258,0.008313,-0.00011,-0.003023,0.27758803821933115,-0.4964023267586133,0.628611492211659,-0.530450000363474
118,2.935748815536499,0.5114,0.0963,0.3726,-9.66,-0.602,1.268,0.007712,-0.001621,7.7e-05,0.2822771194340873,-0.5129774570979341,0.6261866553306702,-0.5148436937936792
119,2.959416627883911,0.5112,0.0946,0.3742,-9.647,-0.554,1.27,0.010081,-0.000317,0.003004,0.2853620837392973,-0.5057457873307108,0.6234716270269649,-0.5235196367411206
120,2.984666347503662,0.5114,0.0952,0.3715,-9.677,-0.548,1.223,0.012721,0.001421,0.004686,0.2870825580834045,-0.4834202659889026,0.6178786107951462,-0.5496494097125619
121,3.0098249912261963,0.5101,0.096,0.3731,-9.651,-0.56,1.248,0.011896,0.000292,0.004233,0.2884195264206712,-0.46750263195693065,0.6109607078323424,-0.5700723457401012
122,3.044264793395996,0.5119,0.0947,0.3731,-9.621,-0.566,1.276,0.00818,0.001806,0.004636,0.28840023770044615,-0.44910444128272664,0.604453343573341,-0.5914107364239042
123,3.058584690093994,0.5114,0.0947,0.3715,-9.609,-0.568,1.26,0.008351,-0.00073,0.006264,0.28366697915811606,-0.4151593343432829,0.5946427619312885,-0.6273561649698518
124,3.084580898284912,0.5112,0.096,0.3742,-9.644,-0.558,1.273,0.007028,-0.000903,0.005113,0.2780235528080513,-0.3908335400378879,0.5837672541173018,-0.6551090299223381
125,3.1089935302734375,0.5109,0.0938,0.3742,-9.631,-0.558,1.251,0.001906,-0.000461,0.006577,0.2672971081019854,-0.3592526231942362,0.5715973194231042,-0.6875800412727943
126,3.135558843612671,0.5112,0.0952,0.3739,-9.632,-0.559,1.273,2.6e-05,-0.002428,0.005122,0.256057848947598,-0.3320225124730193,0.560232293028653,-0.7143774961820186
127,3.164118766784668,0.5109,0.0944,0.3744,-9.581,-0.57,1.251,0.004019,-0.000869,0.003198,0.2400705430115596,-0.3006807375841378,0.543721749088278,-0.7458712274866066
128,3.200730800628662,0.5112,0.0976,0.3742,-9.616,-0.564,1.282,0.00023,-0.002471,0.002825,0.2285060380719897,-0.28062921010244096,0.532031617339453,-0.765489774688786
129,3.208306074142456,0.5114,0.0955,0.3747,-9.657,-0.541,1.28,0.001752,-0.003555,0.001416,0.21924018313780141,-0.2640197046276813,0.521865979705519,-0.7809502140930714
130,3.2343242168426514,0.5122,0.0936,0.3736,-9.666,-0.555,1.275,0.003745,-0.005758,0.002735,0.20606711138097988,-0.24283122492541787,0.5062276049083353,-0.801438053649245
131,3.259683132171631,0.5101,0.0946,0.3744,-9.673,-0.577,1.25,0.002949,-0.006652,0.005558,0.18817103373651017,-0.2175474426298671,0.4852235459448008,-0.8257256703824168
132,3.2856605052948,0.5106,0.096,0.3723,-9.622,-0.585,1.311,0.005197,-0.003935,0.008792,0.16295110361166557,-0.19008713822027365,0.45674949548592336,-0.8536355874073674
133,3.309574604034424,0.5106,0.0957,0.3753,-9.616,-0.558,1.263,0.003926,-0.001061,0.00724,0.13598880721055584,-0.16676029304729556,0.4272988533184102,-0.8781308210790704
134,3.334080934524536,0.5117,0.0938,0.3734,-9.64,-0.56,1.264,0.001786,-0.005191,0.005047,0.10486168638689147,-0.14214130785262236,0.39424018976232633,-0.9018728004026999
135,3.3589847087860107,0.5104,0.0933,0.3731,-9.673,-0.546,1.319,-0.00393,-0.00326,0.005557,0.07404335339824439,-0.12366907556903148,0.3639438276337431,-0.9202002129388713
136,3.384293556213379,0.5106,0.0944,0.3742,-9.649,-0.535,1.309,-0.004223,-0.001551,0.006494,0.04077913895356516,-0.10737860186035185,0.33380991180602804,-0.9356162891211192
137,3.4094011783599854,0.5104,0.093,0.3747,-9.633,-0.532,1.283,-0.000312,-0.00167,0.006507,0.004928587438306174,-0.094080068912976,0.299770554965061,-0.9493483365104359
138,3.435357093811035,0.5125,0.092,0.3725,-9.625,-0.534,1.282,7.8e-05,-0.002824,0.00556,-0.03297649355777759,-0.0829239602418813,0.2625107753838257,-0.9607935576895898
139,3.4595754146575928,0.5111,0.0922,0.3736,-9.635,-0.547,1.285,0.002243,-0.001989,0.005669,-0.07450318265509769,-0.07367813441275717,0.21981703383543028,-0.9698975615597298
140,3.4841082096099854,0.5109,0.0941,0.3736,-9.664,-0.555,1.266,0.003141,-0.001087,0.006827,-0.10179780035726106,-0.06969590062766776,0.1913558696173777,-0.9737364224681639
141,3.5091419219970703,0.5104,0.0928,0.3725,-9.64,-0.532,1.289,0.004597,-0.002139,0.006598,-0.14016116138477056,-0.06850676189828261,0.14946000033600576,-0.9763828043923375
142,3.534031391143799,0.5109,0.093,0.3728,-9.625,-0.55,1.283,0.003185,-0.001788,0.008394,-0.176277830830426,-0.07002794503134181,0.11073020463004221,-0.9755824081311615
143,3.5581066608428955,0.5106,0.093,0.3744,-9.643,-0.539,1.286,0.00733,-0.002851,0.006729,-0.2187767509808928,-0.07605411034480514,0.06404655815886617,-0.9706959070264527
144,3.5839126110076904,0.5101,0.0946,0.3733,-9.639,-0.52,1.256,0.004435,-0.004345,0.007245,-0.24817866894538831,-0.08335497501880444,0.029931417432530617,-0.9646571446221655
145,3.6204922199249268,0.5098,0.0941,0.3739,-9.646,-0.56,1.272,0.004687,-0.004065,0.007339,-0.27670154527006263,-0.09281944647018929,-0.001621655850325629,-0.9564612775405131
146,3.639785051345825,0.5106,0.0925,0.3731,-9.658,-0.515,1.281,0.000943,-0.003055,0.010084,-0.31174279360492163,-0.1042591775394742,-0.03700836891742658,-0.9437037857104651
147,3.670091390609741,0.5109,0.0933,0.3706,-9.681,-0.544,1.299,0.004819,-0.003668,0.008342,-0.36298848823016777,-0.1295894732682452,-0.0899409489945576,-0.9183444623475412
148,3.684539556503296,0.5109,0.0955,0.3726,-9.617,-0.501,1.253,0.001535,-0.004687,0.012394,-0.4097051668430005,-0.16144701371752165,-0.13875404017626664,-0.8870309207454985
149,3.726006269454956,0.5112,0.0936,0.3731,-9.63,-0.523,1.279,0.007275,-0.003629,0.009657,-0.4493223182597766,-0.19929877041287902,-0.18223148761602664,-0.8515756803401706
150,3.733534097671509,0.5112,0.0925,0.3709,-9.628,-0.506,1.29,0.006652,-0.004094,0.005882,-0.48411132196344325,-0.23973445192665527,-0.22070018031763758,-0.8120683782256245
151,3.7583189010620117,0.5101,0.093,0.3725,-9.631,-0.529,1.282,0.007444,-0.005256,0.003551,-0.5059981496497874,-0.2699735410594766,-0.24786508259067216,-0.7807964270609324
152,3.786038398742676,0.5114,0.0938,0.3736,-9.639,-0.515,1.302,0.007051,-0.007863,0.007749,-0.5284924188210166,-0.3074692441892851,-0.276362833591107,-0.7414728662168799
153,3.8104612827301025,0.5104,0.0919,0.3744,-9.624,-0.508,1.252,0.006522,-0.005181,0.00746,-0.5446875118490738,-0.34285971231799706,-0.2971764935378542,-0.7053005485560259
154,3.8340904712677,0.5117,0.0919,0.3752,-9.611,-0.484,1.312,0.007222,-0.003291,0.004774,-0.5574846533357125,-0.3827325139583861,-0.31542381064758107,-0.6657585926826729
155,3.860704183578491,0.5109,0.0941,0.3717,-9.633,-0.465,1.299,0.006165,-0.003993,0.001405,-0.5636983303608114,-0.4075725035025136,-0.32686486798315184,-0.6397563636381305
156,3.8838279247283936,0.5109,0.093,0.375,-9.646,-0.496,1.294,0.004733,-0.003758,-0.004439,-0.5661582508497308,-0.41855317181044305,-0.33483780068093855,-0.6262281729508369
157,3.925440549850464,0.5114,0.0941,0.3744,-9.631,-0.495,1.271,0.007637,-0.007058,-0.005483,-0.5648993071153751,-0.4107017647565637,-0.33998185287620686,-0.6297818455316688
158,3.9338035583496094,0.5117,0.093,0.3728,-9.61,-0.529,1.325,0.008742,-0.006388,-0.008523,-0.5608689099569915,-0.3966481934400335,-0.3437719606144944,-0.6402476986133417
159,3.983711004257202,0.5098,0.0911,0.3728,-9.615,-0.55,1.293,0.006799,-0.007487,-0.002886,-0.5573950398452988,-0.38053350516493256,-0.3479278912127363,-0.6507312836486394
160,3.9851057529449463,0.5109,0.0933,0.372,-9.612,-0.606,1.295,0.00235,-0.003237,0.002168,-0.5585009522267363,-0.38276437405509445,-0.35338542900007797,-0.645512865004619
161,4.01483678817749,0.5104,0.0941,0.3742,-9.656,-0.539,1.339,-0.001965,-0.001127,0.006519,-0.5650874446979802,-0.40242325120509637,-0.35922383682901027,-0.6242515052349267
162,4.044224977493286,0.5109,0.0936,0.372,-9.657,-0.452,1.315,-0.00085,0.000115,0.006399,-0.5730680084528286,-0.44006411768121334,-0.3655705071305933,-0.5867664222956567
163,4.060930490493774,0.5104,0.093,0.3728,-9.671,-0.491,1.31,0.000843,0.000281,0.002702,-0.5767984402892039,-0.47023022139837833,-0.3693009389669796,-0.5566003185784939
164,4.084951877593994,0.5106,0.0922,0.3733,-9.627,-0.507,1.287,0.004119,-0.001486,0.001561,-0.5779103365973642,-0.4964503011958976,-0.3720467287283888,-0.5302244552441242
165,4.115592956542969,0.5104,0.0968,0.3723,-9.578,-0.551,1.318,0.003897,-0.003632,0.004122,-0.5773459804135509,-0.5097777647754183,-0.37423435215324097,-0.5164754583804908
166,4.14403772354126,0.5112,0.0939,0.3709,-9.652,-0.531,1.313,0.001769,-0.003727,0.007151,-0.5774385419635546,-0.533503536547818,-0.3758134495122095,-0.4906148773852147
167,4.159725904464722,0.5098,0.0925,0.3714,-9.648,-0.505,1.253,-0.001159,-0.003711,0.009791,-0.5742454248506662,-0.5731303915966373,-0.37210829841682586,-0.450887081779571
168,4.18546724319458,0.5117,0.0939,0.3712,-9.683,-0.517,1.285,0.001684,-0.002222,0.01574,-0.5641578081976344,-0.6251118828349593,-0.36113858214960526,-0.40067446371230847
169,4.210427284240723,0.5114,0.0919,0.3736,-9.623,-0.477,1.304,0.00879,-0.00124,0.015741,-0.5373246433322298,-0.6981423603865774,-0.3378677187716365,-0.33124745570917286
170,4.234344482421875,0.5114,0.0925,0.3747,-9.595,-0.475,1.294,0.011213,-0.002463,0.014832,-0.49331162092976705,-0.7744088686663266,-0.3001143479646891,-0.25858446769347054
171,4.260695457458496,0.5106,0.0922,0.3723,-9.611,-0.486,1.329,0.004777,-0.001685,0.015822,-0.4428413372682194,-0.8363600911406259,-0.2545576488348236,-0.19898178653692347
172,4.296052932739258,0.5109,0.0947,0.3725,-9.678,-0.482,1.304,0.00395,-0.002173,0.012952,-0.38687722789052975,-0.8872055222697623,-0.20068316159785354,-0.15138903673934656
173,4.30952262878418,0.5109,0.093,0.3741,-9.652,-0.453,1.317,0.001945,-0.000759,0.013513,-0.33087004128431813,-0.9251911775976673,-0.14530215790577905,-0.11590333724220037
174,4.357168674468994,0.5127,0.0936,0.3701,-9.596,-0.496,1.326,-0.000722,-0.002969,0.01561,-0.26626355278343505,-0.9566795336087093,-0.08105202457481289,-0.08543160858657337
175,4.358387231826782,0.5111,0.0903,0.3712,-9.61,-0.451,1.307,0.000105,-0.002269,0.012911,-0.20834214498912254,-0.9754280148195066,-0.02063242889043425,-0.0686151689110313
176,4.396724462509155,0.5106,0.0917,0.3731,-9.615,-0.469,1.29,0.00257,-0.003749,0.013508,-0.1355364485840996,-0.9878117548540952,0.051211397265720875,-0.0568788261778939
177,4.408910512924194,0.5106,0.0903,0.3714,-9.633,-0.456,1.284,0.003863,-0.003462,0.008048,-0.07057993230294599,-0.9893593033848104,0.11415946015016941,-0.056162795694803286
178,4.435739278793335,0.5122,0.0914,0.3717,-9.648,-0.464,1.293,-9.2e-05,-0.00379,0.008915,-0.016858111811156866,-0.9837211225689495,0.167520497942761,-0.0628127363427022
179,4.459526538848877,0.5109,0.0903,0.372,-9.632,-0.465,1.342,0.002571,-0.004854,0.00986,0.037836584667474804,-0.9714170517648256,0.22213421674809825,-0.0746571774911431
180,4.4843902587890625,0.5104,0.0914,0.3714,-9.62,-0.438,1.325,0.005138,-0.004627,0.009607,0.08763889174399639,-0.9550082025908915,0.26892094240189107,-0.08922042577615098
181,4.509403228759766,0.5106,0.0914,0.3731,-9.647,-0.468,1.293,0.005096,-0.003002,0.007459,0.12515298320143148,-0.938574423938135,0.30338020838326796,-0.10665472650710506
182,4.534815788269043,0.5111,0.0917,0.3725,-9.664,-0.493,1.32,0.002556,-0.003775,0.009036,0.16280078450214402,-0.917869879168789,0.3392258956440666,-0.12624017270520527
183,4.559382200241089,0.5098,0.089,0.3733,-9.665,-0.452,1.338,0.001124,-0.00233,0.011097,0.19899590006347595,-0.8929367582492841,0.37437681311499876,-0.15134919665146462
184,4.585015535354614,0.5098,0.0879,0.37,-9.636,-0.439,1.336,-0.002263,-0.000788,0.009092,0.23488211791342173,-0.8609565505598286,0.4119858149418032,-0.18398885025828388
185,4.609075307846069,0.5101,0.0884,0.3741,-9.637,-0.43,1.36,-0.002154,-0.000947,0.009242,0.26783413492508124,-0.8246587456367086,0.4470273671545707,-0.21993035813337886
186,4.633599281311035,0.5109,0.0911,0.3739,-9.637,-0.467,1.347,0.001579,-0.002019,0.009691,0.29716788807131816,-0.7859333584951749,0.4759965629974068,-0.2596676227764701
187,4.669532537460327,0.5098,0.0887,0.3733,-9.609,-0.476,1.341,0.000411,-0.00049,0.011546,0.3183945644837726,-0.7501198194992409,0.4975382220180689,-0.29732284697398204
188,4.684353590011597,0.5111,0.089,0.372,-9.647,-0.429,1.329,0.000128,0.003224,0.010636,0.33870600189411476,-0.7062712043526218,0.5177956682727478,-0.34401580792338565
189,4.732116222381592,0.509,0.0908,0.3747,-9.637,-0.448,1.318,-0.001227,0.000719,0.01207,0.3521189632493704,-0.6616842855558849,0.5334131738728649,-0.3919904691538605
190,4.733018159866333,0.5116,0.0887,0.373,-9.606,-0.45,1.367,-0.001836,0.001465,0.00806,0.35837331702117237,-0.6240831460476516,0.5433855606493712,-0.43222786229519755
191,4.76609992980957,0.5106,0.0879,0.3738,-9.641,-0.448,1.293,0.001562,0.000278,0.010641,0.36342136699165883,-0.5880670366769484,0.5483013607763596,-0.47060353606693106
192,4.791449546813965,0.5101,0.0884,0.3719,-9.625,-0.421,1.327,-0.001003,0.001446,0.008839,0.36572441507216946,-0.5422928250752815,0.5500165229329759,-0.5192744636439468
193,4.808896541595459,0.5101,0.0892,0.3738,-9.692,-0.415,1.318,-0.005238,0.001495,0.005634,0.36061773259937113,-0.50144559427064,0.5501663873258441,-0.561982306819603
194,4.833521366119385,0.5103,0.0887,0.3741,-9.604,-0.395,1.36,-0.014543,0.001093,0.001638,0.35416413419199494,-0.47611785715764166,0.5507869314487223,-0.5869525605131564
195,4.8587806224823,0.5098,0.0873,0.3741,-9.643,-0.431,1.293,-0.006627,0.001326,-0.001481,0.3479114415618121,-0.4704766099577618,0.5533779739621003,-0.5927750047417949
196,4.885924339294434,0.5096,0.0865,0.3727,-9.599,-0.453,1.334,-0.012274,0.00222,-0.000308,0.3463203091768568,-0.4882671038619271,0.5592245081881533,-0.5735202072984444
197,4.909635782241821,0.509,0.0873,0.3733,-9.649,-0.44,1.293,-0.011102,0.003992,-0.000971,0.3421403341413314,-0.5050609226893301,0.5643412644856796,-0.556212543300279
198,4.9347920417785645,0.5103,0.0873,0.3714,-9.663,-0.488,1.307,-0.002938,0.003984,0.003918,0.3384610918277423,-0.507670982317436,0.564941598938919,-0.5554774998323153
199,4.961416244506836,0.509,0.086,0.373,-9.645,-0.448,1.303,0.003417,0.00309,0.009638,0.33409655957985307,-0.48907275861094335,0.5618625238689603,-0.5774927098528515
200,4.984451055526733,0.5106,0.0873,0.3736,-9.635,-0.412,1.308,0.005751,0.003417,0.008641,0.32660451556813175,-0.45427380690831426,0.5512969238791967,-0.6188994267963649
201,5.008643865585327,0.5088,0.0863,0.3719,-9.625,-0.396,1.272,0.007866,0.003335,0.005453,0.3178473990448116,-0.42152675450356614,0.539500490482713,-0.6559172561589234
202,5.033657550811768,0.5088,0.0873,0.3722,-9.647,-0.42,1.318,0.007603,0.002245,0.002157,0.3125612167026442,-0.40617753210903723,0.530516083168023,-0.6751873693451576
203,5.059362888336182,0.5093,0.0868,0.373,-9.665,-0.449,1.38,0.004076,0.003004,0.003426,0.30769272341134757,-0.39012109272216144,0.5211207222832661,-0.6939480627395266
204,5.083844423294067,0.5082,0.0862,0.3735,-9.665,-0.409,1.35,-0.006031,0.005049,0.000102,0.305331933225108,-0.3896073006649389,0.5201862353776509,-0.6959776162673804
205,5.11032247543335,0.5088,0.0862,0.3722,-9.644,-0.412,1.303,-0.000536,0.003836,-0.005278,0.3061925045728199,-0.3998860566689277,0.5231048929430611,-0.6875307722598512
206,5.136105537414551,0.5072,0.0873,0.3738,-9.633,-0.436,1.295,0.001911,0.002974,-0.008347,0.3137606800923026,-0.42529897897855945,0.5307588960969785,-0.6625481177406871
207,5.160559415817261,0.5072,0.0879,0.3719,-9.628,-0.445,1.287,-0.001889,0.002437,-0.007279,0.3222245730686698,-0.4611453648375533,0.5392227890733478,-0.6267017318816929
208,5.185211181640625,0.5083,0.0881,0.373,-9.656,-0.461,1.297,0.002697,0.000139,-0.003977,0.32681465644728064,-0.49164377144054516,0.5428955497310102,-0.5972796701857741
209,5.22571325302124,0.5072,0.0876,0.3716,-9.671,-0.412,1.283,0.001264,0.001809,-0.003023,0.3292411832073804,-0.5082189885031294,0.5432281749812756,-0.5815641434197716
210,5.234399795532227,0.5088,0.0881,0.3722,-9.634,-0.417,1.286,0.002678,0.002097,6.4e-05,0.3317865805497713,-0.5152198875166062,0.5428817927202184,-0.574234700803903
211,5.259805917739868,0.5077,0.0854,0.3727,-9.64,-0.434,1.279,-0.002395,0.001452,-0.000271,0.33100659806609223,-0.5235108459216207,0.5428970606052703,-0.5671276821186735
212,5.2840728759765625,0.508,0.0876,0.3738,-9.606,-0.434,1.285,-0.002912,0.002187,0.000663,0.3292621680897631,-0.5246904758240334,0.5430403526338111,-0.5669157826835695
213,5.309890031814575,0.5067,0.0876,0.3733,-9.628,-0.443,1.307,-0.00512,0.002003,0.001016,0.3265651529090057,-0.5219369703728395,0.5443333738233379,-0.5697702852954352
214,5.351597547531128,0.5077,0.0871,0.3724,-9.664,-0.431,1.286,-0.000868,6.3e-05,-0.001608,0.32477540060075527,-0.5158572048966458,0.54481273812565,-0.5758397031265481
215,5.359003067016602,0.5069,0.0865,0.3705,-9.662,-0.445,1.305,0.000356,-0.000801,-0.000823,0.3256131451645087,-0.5143580135324484,0.5449327011132677,-0.5765936739753812
216,5.388167858123779,0.5069,0.0868,0.3735,-9.636,-0.432,1.311,-0.000359,-0.002559,0.000819,0.3253651303343974,-0.5024920189881119,0.54497122274121,-0.5870653023298871
217,5.421343803405762,0.5064,0.0862,0.3746,-9.616,-0.457,1.322,-0.001374,-0.001877,0.003161,0.32551203406553686,-0.49254401949600646,0.5438564348491256,-0.5963744484888944
218,5.442527770996094,0.5072,0.0879,0.373,-9.602,-0.43,1.309,0.00075,0.000594,0.002899,0.324275802265833,-0.4776221110935006,0.5429055441807248,-0.6098982645960462
219,5.459472417831421,0.5069,0.0865,0.3719,-9.657,-0.43,1.308,-0.003298,-0.00023,0.002938,0.3208396890398191,-0.462109961954164,0.5411004649481053,-0.6250812457852958
220,5.485213279724121,0.5075,0.0898,0.3722,-9.659,-0.415,1.302,-0.002068,-0.001681,0.001366,0.31739904927422913,-0.45082693229199927,0.5393780710803738,-0.6364622668136862
221,5.52849817276001,0.5064,0.0881,0.3719,-9.645,-0.424,1.313,-0.001737,-0.002094,0.004806,0.313134563363259,-0.43749574480602377,0.5368325645281389,-0.6498884644045202
222,5.533839464187622,0.508,0.0868,0.3708,-9.619,-0.425,1.285,-0.001601,-1.4e-05,0.006517,0.3047830055339147,-0.4115605534468726,0.5306553262715177,-0.6753740852919119
223,5.568912029266357,0.5059,0.086,0.3716,-9.618,-0.402,1.303,-0.000349,0.00018,0.002778,0.2954764503747586,-0.387933483869635,0.5220707775914485,-0.6997452268874441
224,5.584629774093628,0.5059,0.0884,0.3733,-9.63,-0.443,1.313,0.002965,-0.001022,0.005792,0.28526280844886587,-0.3614497793345863,0.5116785682491628,-0.7253717873817063
225,5.609727621078491,0.5072,0.0884,0.3706,-9.665,-0.407,1.289,0.001436,-0.003682,0.00306,0.2784085968588337,-0.3461646616301225,0.5037374220656698,-0.7408827773974985
226,5.6588568687438965,0.5069,0.0879,0.3733,-9.643,-0.426,1.328,0.001461,-0.000926,0.003297,0.27484923571057907,-0.33612056296318793,0.4983705891769813,-0.7504049710829538
227,5.660366058349609,0.5069,0.087,0.3735,-9.647,-0.429,1.337,0.002253,0.000834,0.002632,0.27174403298827554,-0.32784026810666395,0.49400273797120475,-0.758048305861817
228,5.684182405471802,0.5064,0.0854,0.3732,-9.591,-0.424,1.342,0.002441,7.7e-05,0.003507,0.26538134669678615,-0.3169214726195708,0.48664165548684146,-0.769619009746426
229,5.7185845375061035,0.5077,0.0865,0.373,-9.617,-0.43,1.304,0.005038,-0.000449,0.006444,0.2535790387846434,-0.29742073226635163,0.4722087806995371,-0.7900996434231949
230,5.734467267990112,0.508,0.086,0.3708,-9.649,-0.4,1.305,0.001581,-0.00084,0.002882,0.24135690036329538,-0.28043257518643866,0.45898500114094937,-0.8077358393367027
231,5.766751050949097,0.5067,0.0865,0.3724,-9.658,-0.391,1.275,0.004089,0.001507,0.001772,0.23015088029079966,-0.26689848713464726,0.44531229999986327,-0.8230994626018403
232,5.784473657608032,0.5077,0.0879,0.3725,-9.636,-0.402,1.269,0.006684,0.001371,0.000974,0.22579153561208753,-0.2613681654596251,0.43629394429171797,-0.8308745144151315
233,5.810085773468018,0.5077,0.0865,0.3719,-9.616,-0.414,1.355,0.002613,0.00182,-0.002373,0.22666940730179097,-0.25984954289056755,0.4332665254621587,-0.8326940090855504
234,5.8348047733306885,0.5085,0.086,0.373,-9.652,-0.375,1.345,-0.000126,0.002459,-0.001571,0.22938547320670563,-0.2632782141939143,0.43652883729565756,-0.829161902659487
235,5.871438026428223,0.5075,0.0876,0.373,-9.641,-0.4,1.353,0.003774,0.003606,-0.004464,0.23993446325881607,-0.275843152740098,0.44395970154072056,-0.8180719967307164
236,5.885141611099243,0.5082,0.0868,0.3722,-9.63,-0.325,1.323,0.008489,0.00608,-0.012475,0.2588524181613313,-0.300736220384584,0.4581870010095479,-0.7953727575588081
237,5.909767389297485,0.5075,0.0892,0.3735,-9.627,-0.274,1.326,0.012274,0.001983,-0.026029,0.30209300846007414,-0.36621263131688875,0.4928270820953551,-0.7292116222722184
238,5.935720920562744,0.5064,0.0887,0.373,-9.668,-0.474,1.321,0.014969,-0.008629,-0.02933,0.34551562757916704,-0.45904887919081516,0.5208081655816764,-0.6313888914731394
239,5.960867404937744,0.507,0.0895,0.3703,-9.669,-0.518,1.267,0.011619,-0.002193,-0.018694,0.3643713305352781,-0.5468526784181318,0.5276939280147537,-0.5382609032125838
240,5.985091209411621,0.5083,0.089,0.37,-9.636,-0.488,1.319,0.006349,0.00165,-0.008993,0.36561160342806837,-0.6025082170675389,0.5210174831555703,-0.4815109407387201
241,6.023832321166992,0.5075,0.0906,0.3714,-9.65,-0.471,1.313,-0.002229,0.000878,-0.002704,0.3624008230664206,-0.6282957498677245,0.5170746824486873,-0.4544709747712433
242,6.0341477394104,0.5077,0.0895,0.3725,-9.669,-0.417,1.311,-0.00164,-0.000658,-0.003441,0.3593962271340492,-0.6373546439555705,0.5162353091743036,-0.44510056763813494
243,6.060053825378418,0.507,0.0903,0.373,-9.64,-0.438,1.322,0.001387,-0.001327,-0.001629,0.35693823812668357,-0.6501102423164217,0.5131719994253497,-0.43197947405413994
244,6.0836334228515625,0.5085,0.0895,0.3714,-9.63,-0.428,1.313,0.002274,0.000935,-0.006399,0.354150766213702,-0.6664233767298295,0.5080935497848683,-0.4150880176604369
245,6.129247665405273,0.507,0.09,0.3719,-9.614,-0.445,1.31,-0.003323,0.000321,-0.007791,0.34486222631424546,-0.6936186062332131,0.5007750342897426,-0.38624815725228323
246,6.133236408233643,0.5098,0.0895,0.3717,-9.671,-0.447,1.288,0.004644,0.000483,-0.0073,0.33709978768008036,-0.7156585937226282,0.4909159300383417,-0.36496309404045896
247,6.167948007583618,0.5085,0.089,0.3714,-9.637,-0.458,1.31,0.004169,0.000178,-0.007712,0.3285523842201064,-0.7402687940568505,0.47792158995127004,-0.3400682243717425
248,6.183790922164917,0.5083,0.0911,0.3722,-9.634,-0.457,1.308,0.001822,0.000184,-0.00678,0.317217718906894,-0.764452421437307,0.464304358039815,-0.3152885619165085
249,6.224530935287476,0.5085,0.0887,0.3719,-9.594,-0.447,1.332,0.000128,0.001268,-0.00517,0.30560034522970364,-0.7830959789465217,0.45322683644596484,-0.2965713261231734
250,6.235550403594971,0.5096,0.0914,0.3698,-9.645,-0.463,1.31,-5.3e-05,0.001476,-0.000963,0.29804953613934676,-0.7957775817133581,0.44405636092555034,-0.2841099483846301
251,6.2759435176849365,0.5077,0.0898,0.3709,-9.668,-0.457,1.312,-0.000948,0.001698,-0.000599,0.293517532893135,-0.8015264769549905,0.4401248759679662,-0.27873438643021914
252,6.283040523529053,0.5096,0.0914,0.3712,-9.645,-0.447,1.316,0.00143,0.001753,0.001543,0.30046263636400455,-0.7914404419733251,0.4461698659863121,-0.2903044636997786
253,6.309099197387695,0.5091,0.092,0.3703,-9.632,-0.457,1.272,0.003514,-8e-05,0.007292,0.3102706579143649,-0.777380176502249,0.45393229116572914,-0.30554484949962857
254,6.334088087081909,0.5111,0.0892,0.3714,-9.63,-0.508,1.315,-0.001282,0.001088,0.010116,0.3191549278548373,-0.7603987361609839,0.4631113908595248,-0.32474872398041615
255,6.358808994293213,0.5093,0.0917,0.3733,-9.627,-0.412,1.325,-0.00527,0.002502,0.012479,0.3310932552803435,-0.7296094742279694,0.47975238182247826,-0.35761001602347575
256,6.38931941986084,0.5098,0.09,0.372,-9.671,-0.41,1.296,-0.003523,0.001406,0.011639,0.3456762270028819,-0.6820825534203028,0.49911746010273267,-0.407618813875524
257,6.408738136291504,0.5085,0.09,0.373,-9.657,-0.408,1.339,-0.001917,0.000587,0.00946,0.3552422996473495,-0.6345875495387836,0.5117847595275704,-0.4573597166639533
258,6.438039302825928,0.5093,0.0884,0.3711,-9.626,-0.437,1.302,-0.002702,0.001335,0.009435,0.35928168627734686,-0.5945432751651311,0.5182620799043258,-0.49883803022110046
259,6.479470729827881,0.5096,0.089,0.373,-9.6,-0.423,1.31,0.003222,-0.001118,0.008683,0.3605110910453193,-0.5596966822749645,0.5202291580098494,-0.5349140120057375
260,6.485260009765625,0.5085,0.0881,0.3738,-9.63,-0.423,1.29,0.006704,-0.002284,0.008018,0.3605259022112657,-0.524209346377666,0.5181798223718024,-0.5715901562236535
261,6.508726119995117,0.5093,0.089,0.3727,-9.657,-0.484,1.296,0.000997,-0.000309,0.012546,0.3550221290951471,-0.47984975745662833,0.5118287431842078,-0.6178469355528422
262,6.534458160400391,0.5109,0.0895,0.373,-9.635,-0.485,1.315,-0.002547,0.000368,0.018381,0.3406453605817788,-0.4243398044993278,0.49824961605862406,-0.6750139174335711
263,6.560858964920044,0.5082,0.0873,0.3749,-9.647,-0.39,1.293,0.000144,0.001167,0.016585,0.3116991364868064,-0.36308594187303617,0.4731699252879535,-0.7396772734987482
264,6.584590435028076,0.5096,0.0903,0.3714,-9.638,-0.356,1.32,0.008197,-0.002782,0.010192,0.28164676407872125,-0.3114805758608259,0.43851953224815515,-0.7945788639161331
265,6.610280990600586,0.509,0.0881,0.373,-9.645,-0.454,1.346,0.005609,0.000723,0.00732,0.2602905434011332,-0.27900412006582165,0.4110776426272052,-0.827901386479271
266,6.637158155441284,0.5109,0.089,0.3717,-9.626,-0.405,1.333,-0.004012,-0.000671,0.005397,0.24324805931750137,-0.2614984808245142,0.39581361046952107,-0.8460381267601494
267,6.677746772766113,0.5093,0.0865,0.3716,-9.643,-0.401,1.293,0.001469,-0.001063,0.003758,0.22823507893714465,-0.24827474338134053,0.3820864856430298,-0.8603942805658598
268,6.691054344177246,0.5098,0.0881,0.373,-9.635,-0.392,1.241,0.007187,-0.003886,0.000132,0.21828767577069985,-0.2369124858907329,0.36770318739697366,-0.8723630727018453
269,6.709171295166016,0.5101,0.089,0.3719,-9.614,-0.419,1.272,0.000932,-0.003159,0.003571,0.2134166079242731,-0.22959985003233843,0.35988843089744027,-0.8787591124041918
270,6.735310316085815,0.5109,0.089,0.3717,-9.622,-0.429,1.341,0.001981,-0.003266,0.004205,0.20202497420436544,-0.21691665905380977,0.34660944710425345,-0.8899409890553095
271,6.7605438232421875,0.5106,0.0887,0.3736,-9.613,-0.39,1.33,0.005719,-0.001824,0.003447,0.18132814703212086,-0.19941046546693317,0.3241409232044142,-0.9068010979593863
272,6.785326242446899,0.5111,0.0909,0.3728,-9.669,-0.34,1.321,0.002741,-0.003455,0.000747,0.16699099653100274,-0.18787884182354278,0.30748140025888243,-0.9177530911783754
273,6.825916290283203,0.5096,0.0895,0.3709,-9.645,-0.375,1.323,-0.000365,-0.000872,-0.001232,0.16552762314536779,-0.18608150606613885,0.30485787156875405,-0.9192583734829788
274,6.840960264205933,0.5111,0.0887,0.3728,-9.652,-0.387,1.305,0.004256,0.000394,-0.005677,0.1747301440823178,-0.18998442288434342,0.31224060431829925,-0.9142653339294992
275,6.859833478927612,0.5103,0.0884,0.3746,-9.605,-0.421,1.302,0.000938,-0.00396,-0.006053,0.19542433042281143,-0.1995863884723349,0.3308509678625711,-0.9013946093025885
276,6.886328935623169,0.5106,0.0884,0.3714,-9.646,-0.442,1.28,0.003025,-0.002382,-0.005746,0.2166950295937971,-0.2137787212597978,0.35080790208462403,-0.8855934385037266
277,6.911301374435425,0.5101,0.0873,0.3722,-9.635,-0.462,1.339,0.001396,-0.000706,-0.002699,0.2346473399481405,-0.22562126166506632,0.36734331716816215,-0.8712603281865969
278,6.933995246887207,0.5098,0.0882,0.3717,-9.663,-0.436,1.318,-0.000239,-0.001008,0.002056,0.23798277949848562,-0.22666150233509286,0.36997178111779205,-0.8689704489785036
279,6.969233751296997,0.5096,0.0887,0.3725,-9.63,-0.401,1.299,-0.002482,0.001755,0.003838,0.22681373241092076,-0.21849103481594262,0.3595097096309424,-0.8783905550357206
280,6.984072923660278,0.5111,0.0903,0.3725,-9.609,-0.391,1.31,0.001811,0.000145,0.001606,0.21266303012707452,-0.20565435138070295,0.3447577435934164,-0.8908551069661831
281,7.009487628936768,0.5096,0.0887,0.3738,-9.635,-0.394,1.249,0.001231,-0.000967,0.001847,0.2028667967841123,-0.1983225573202824,0.3344658262491095,-0.8986911800457359
282,7.034485816955566,0.5117,0.0906,0.3728,-9.671,-0.43,1.288,0.000218,-0.001759,0.00159,0.195074564739688,-0.19364159552486485,0.3267786699259094,-0.9042480564290197
283,7.060389041900635,0.509,0.0881,0.3752,-9.65,-0.447,1.285,0.00067,-0.000306,0.004339,0.18729702983616656,-0.18675035215070995,0.3183475360054621,-0.9103290476005843
284,7.084439039230347,0.5111,0.0882,0.3719,-9.655,-0.388,1.33,0.000588,-0.001914,0.004893,0.17004542863133906,-0.17641240481539522,0.3012005725514486,-0.9215429619521344
285,7.115558385848999,0.5098,0.0903,0.372,-9.635,-0.371,1.337,0.003727,-0.002282,0.00284,0.15016325983382572,-0.16340297004320634,0.27852190062720755,-0.9344388774275961
286,7.135678291320801,0.5103,0.0881,0.3733,-9.642,-0.417,1.344,0.005153,-0.001827,0.002535,0.13321314930999362,-0.15328574748967438,0.2582277670677978,-0.9444978331275431
287,7.179326772689819,0.5096,0.0898,0.3709,-9.65,-0.398,1.315,0.003169,-0.001851,0.000678,0.11260526519408735,-0.14224580123020625,0.2347772871778561,-0.9549690108628408
288,7.186480283737183,0.5106,0.0881,0.3736,-9.651,-0.389,1.294,0.001886,-0.002627,0.00085,0.10271458529028402,-0.13702749236470393,0.22424055293445644,-0.9593692483733963
289,7.22101354598999,0.5106,0.0887,0.3719,-9.655,-0.38,1.319,0.001722,-0.004056,-0.000692,0.10630505443662122,-0.13612056699706454,0.2259937052313043,-0.9586956095849458
290,7.233217000961304,0.5124,0.0871,0.3709,-9.615,-0.406,1.301,0.001139,-0.0043,0.000103,0.10640897388687114,-0.1344205193924586,0.22485931955064517,-0.9591905653486306
291,7.259087562561035,0.5106,0.0868,0.3706,-9.6,-0.393,1.298,0.001291,-0.003529,-9.4e-05,0.10385686839706795,-0.1306199026034784,0.22097611566154188,-0.9608963254366982
292,7.283968448638916,0.5104,0.0882,0.3701,-9.619,-0.385,1.323,-0.000184,-0.003276,0.00108,0.09197328007142355,-0.12348815953317877,0.208309704158981,-0.9658667906917648
293,7.308886289596558,0.5101,0.089,0.3719,-9.637,-0.356,1.308,-0.001276,-0.00553,-0.001371,0.0917389358303869,-0.1183241953927368,0.20868391623162083,-0.9664545387878334
294,7.343981027603149,0.5111,0.0884,0.3714,-9.646,-0.381,1.27,0.002038,-0.006296,-0.001132,0.09095432169048745,-0.11426728918052544,0.20647934443989893,-0.9674898336979192
295,7.359004497528076,0.5109,0.0876,0.3719,-9.633,-0.435,1.27,0.000777,-0.005777,-0.001039,0.09917948218809947,-0.11334849882513817,0.21274993136491469,-0.9654289279026251
296,7.384562253952026,0.5114,0.0871,0.3711,-9.601,-0.435,1.303,-0.00068,-0.004967,-0.000973,0.09945992169719867,-0.10992913292118182,0.21377272675349135,-0.9655695371165979
297,7.410847425460815,0.5101,0.0898,0.3733,-9.625,-0.437,1.283,0.000972,-0.00717,0.000481,0.0945887507130351,-0.1029601374992073,0.2084186068176916,-0.967994763754879
298,7.443735599517822,0.5122,0.0887,0.3725,-9.657,-0.386,1.308,0.001174,-0.007462,0.001556,0.08649088789284565,-0.09547590906623714,0.199350221028222,-0.9714232684445447
299,7.459153652191162,0.5109,0.0884,0.373,-9.658,-0.4,1.335,0.001155,-0.005112,0.000498,0.07545062683328208,-0.0882600730275315,0.18637436738187801,-0.9755931311784869
300,7.483479738235474,0.5111,0.0898,0.3695,-9.622,-0.401,1.343,0.000426,-0.005405,0.001827,0.05948846998717622,-0.0782243949918721,0.16988285361969388,-0.9805518252559475
301,7.508966445922852,0.5109,0.0882,0.3714,-9.614,-0.409,1.342,0.000395,-0.007695,0.003722,0.038635164279632754,-0.06733264241229846,0.14844825959953634,-0.9858685275272419
302,7.534213066101074,0.5106,0.0865,0.3706,-9.64,-0.397,1.34,0.003775,-0.008603,0.000186,0.018127204719554493,-0.05855176958793253,0.126404291557604,-0.9900833549772451
303,7.573058605194092,0.5111,0.0865,0.3722,-9.663,-0.431,1.326,0.003779,-0.006831,0.000565,0.007501800818841123,-0.05297031627523193,0.11330076968634185,-0.9921193497592207
304,7.58481502532959,0.5106,0.0895,0.3706,-9.655,-0.389,1.347,0.001319,-0.007432,0.000934,-0.0004098405841185754,-0.04699339675875412,0.10439076154346189,-0.9934253981030212
305,7.62120246887207,0.5109,0.089,0.3709,-9.649,-0.412,1.322,0.003945,-0.007092,0.001816,-0.017567040522036195,-0.04194603338326603,0.08482453482049271,-0.9953575878362478
306,7.634107351303101,0.5106,0.0871,0.3719,-9.637,-0.421,1.339,0.000884,-0.005926,0.001399,-0.028624902134881648,-0.035796663880159174,0.07324874188513036,-0.9962599237373071
307,7.65843391418457,0.5109,0.0882,0.3703,-9.616,-0.393,1.345,0.000965,-0.005552,0.001745,-0.04525124536899101,-0.03236435040514592,0.05530935874308087,-0.9969181252494297
308,7.6837804317474365,0.5112,0.0906,0.3698,-9.636,-0.382,1.331,0.003451,-0.004685,0.000127,-0.06390150949833927,-0.028611065608002487,0.03525762643164962,-0.9969227170583558
309,7.708961248397827,0.5109,0.0887,0.373,-9.668,-0.416,1.349,0.004221,-0.009966,-0.000999,-0.07240049289183592,-0.022685500215359294,0.02309236881485615,-0.9968501789193384
310,7.735093355178833,0.5114,0.089,0.3703,-9.652,-0.413,1.329,0.004298,-0.008776,-0.002558,-0.0746585699541518,-0.016098235347043903,0.016650155751476943,-0.9969401772747268
311,7.774205446243286,0.5106,0.0882,0.3719,-9.611,-0.402,1.357,0.003231,-0.00936,-0.001337,-0.07651006384887603,-0.010504634159567067,0.010742230326962822,-0.9969555994519601
312,7.784106492996216,0.5104,0.0898,0.3701,-9.608,-0.362,1.373,0.001113,-0.006655,-0.002758,-0.07693820694081348,-0.003635931805952682,0.008714248571854382,-0.9969911505045884
313,7.808396816253662,0.5114,0.0884,0.3717,-9.628,-0.418,1.341,0.004431,-0.007282,-0.003862,-0.06490152952397928,0.0024295379959062115,0.018789745507789172,-0.9977117992057261
314,7.837896108627319,0.5111,0.0895,0.3695,-9.642,-0.407,1.387,0.003896,-0.009137,-0.004271,-0.05069001655456251,0.009713950601058455,0.029446768960561618,-0.9982329633823968
315,7.859934568405151,0.5101,0.0879,0.3706,-9.644,-0.408,1.413,0.002494,-0.006816,-0.005156,-0.04039871882479335,0.015734505476293174,0.03728274921658106,-0.9983638442299407
316,7.883681297302246,0.5111,0.0868,0.3722,-9.632,-0.404,1.348,0.002112,-0.006487,-0.005535,-0.026929936909423226,0.02156555477762248,0.0492940296835378,-0.9981882607918942
317,7.909793853759766,0.5098,0.0871,0.3708,-9.616,-0.424,1.397,0.003008,-0.006338,-0.005433,-0.015386062518494129,0.028126369059771075,0.05688682651108645,-0.997865755206174
318,7.936215877532959,0.5117,0.0874,0.3706,-9.631,-0.419,1.388,0.003033,-0.008723,-0.004775,0.0004654628609745159,0.03475081863175498,0.07023974664649506,-0.9969245417481626
319,7.977782964706421,0.5109,0.0874,0.3703,-9.648,-0.381,1.336,0.003544,-0.010457,-0.008138,0.01743017687532606,0.04037653322562084,0.08381410250560187,-0.9955104824761795
320,7.983592510223389,0.5119,0.0914,0.3685,-9.627,-0.387,1.376,0.007826,-0.009306,-0.004559,0.031381001204323425,0.046482743739085855,0.09295823307822386,-0.9940892083716004
321,8.020917415618896,0.5111,0.0898,0.372,-9.62,-0.393,1.383,0.002382,-0.007176,-0.006744,0.050689858823237226,0.05152443752001496,0.10846624815160004,-0.991469033083052
322,8.034675359725952,0.5119,0.0887,0.369,-9.62,-0.397,1.405,0.00215,-0.008981,-0.008795,0.0785335613419808,0.054246805217773406,0.13395869761909476,-0.9863796587515409
323,8.060053825378418,0.5114,0.0887,0.3687,-9.604,-0.405,1.365,-0.000452,-0.010635,-0.010631,0.11629963727236169,0.052862133072709455,0.17032622401171846,-0.9770716282193593
324,8.083797216415405,0.5119,0.0887,0.369,-9.652,-0.397,1.372,0.004501,-0.009388,-0.01286,0.15229627886108726,0.05181230161282922,0.20569629068585987,-0.9653032501989857
325,8.119457483291626,0.5109,0.0903,0.3685,-9.645,-0.446,1.381,0.004683,-0.009222,-0.011038,0.19521168785880663,0.045400473292963324,0.2439464788710434,-0.948852627858779
326,8.135101079940796,0.5125,0.0901,0.3704,-9.65,-0.426,1.403,0.005382,-0.009723,-0.014803,0.22767536943196653,0.04072108819659907,0.27227899843696196,-0.9340074229577982
327,8.159965753555298,0.5109,0.0892,0.3706,-9.618,-0.38,1.419,0.004551,-0.011585,-0.013962,0.27349368461143453,0.026192135960532423,0.3144604670763564,-0.9086417287014755
328,8.184886932373047,0.5114,0.0903,0.3698,-9.666,-0.42,1.381,0.003088,-0.012599,-0.015136,0.3119990445098975,0.012469021863366778,0.3493777334521482,-0.8834230691387459
329,8.227063655853271,0.5114,0.0898,0.3679,-9.663,-0.345,1.454,0.001994,-0.00736,-0.020714,0.360038959323051,-0.014878869329256472,0.3964846351277943,-0.8443639624739069
330,8.233550310134888,0.5127,0.0911,0.3712,-9.737,-0.443,1.389,-0.040912,-0.003557,-0.024105,0.4307091927594492,-0.08886450489745601,0.48108712062004144,-0.7583850429797196
331,8.281352758407593,0.5114,0.0898,0.3687,-9.674,-0.568,1.349,-0.072718,-0.005247,-0.016293,0.48344211193178366,-0.20051820492239616,0.5676525289664001,-0.6354894021647308
332,8.284053325653076,0.5124,0.0884,0.3695,-9.48,-0.624,1.296,-0.098004,-0.012288,-0.003561,0.48544986780308363,-0.26632397025583165,0.6215557952662071,-0.5541465168059186
333,8.310400247573853,0.5114,0.0879,0.3692,-9.469,-0.491,1.229,-0.073472,-0.028262,0.008834,0.45931381562561796,-0.23053008812864034,0.6451596111023211,-0.5653810869184953
334,8.333879470825195,0.5132,0.089,0.3663,-9.531,-0.487,1.225,-0.0314,-0.041541,0.015077,0.4158417506731488,-0.11194154804718176,0.6232741394113167,-0.6527434989021138
335,8.35990023612976,0.5109,0.0868,0.3698,-9.544,-0.499,1.314,0.004274,-0.052536,0.016828,0.32933789978120104,0.04623882003169416,0.5339584379523513,-0.777358929857546
336,8.401386022567749,0.5138,0.0885,0.3685,-9.575,-0.438,1.398,0.014974,-0.067675,0.024877,0.16367430647333236,0.2084969391779692,0.3510931128321953,-0.8980386260488418
337,8.4087495803833,0.5122,0.0868,0.3663,-9.532,-0.424,1.344,0.028508,-0.078144,0.026195,-0.08817522104096848,0.3069001677262632,0.07494221626630063,-0.9446804124491324
338,8.436543226242065,0.5127,0.0849,0.366,-9.605,-0.517,1.336,0.033212,-0.08615,0.036897,-0.39145863534575837,0.2643617455196388,-0.25429583555273616,-0.8439233569107932
339,8.477238655090332,0.5143,0.0839,0.3649,-9.582,-0.442,1.354,0.036391,-0.09624,0.045632,-0.6556123038932036,0.008908966366382554,-0.5454957186865418,-0.5220417207434492
340,8.484009504318237,0.514,0.0863,0.3636,-9.573,-0.261,1.383,0.074594,-0.10949,0.038755,-0.6869523927842782,-0.39045023563393644,-0.6111604114380871,-0.046129979754886474
341,8.51035737991333,0.5135,0.0847,0.3622,-9.514,-0.236,1.514,0.09513,-0.123433,0.02311,-0.46800766010460276,-0.6883899382971982,-0.43024552328715027,0.3492519328879375
342,8.534733057022095,0.5138,0.0858,0.362,-9.581,-0.239,1.597,0.119721,-0.13518,0.005473,-0.16643848360028282,-0.7883413654890108,-0.1589462982352734,0.5705718157366902
343,8.560734033584595,0.5151,0.0866,0.3598,-9.562,-0.239,1.558,0.109979,-0.135176,-0.01299,0.06785844449802361,-0.7445718520405972,0.06391856206358504,0.6610010636019183
344,8.598213911056519,0.5159,0.0864,0.3579,-9.514,-0.236,1.563,0.134415,-0.138343,-0.028985,0.1900408072176323,-0.6530792933315289,0.1970819914266934,0.7060670059342458
345,8.608807563781738,0.5164,0.0896,0.3569,-9.56,-0.31,1.553,0.155652,-0.141936,-0.036372,0.23976836277648392,-0.5535977850542493,0.2861812809950973,0.7444064071476808
346,8.634462833404541,0.518,0.0883,0.3534,-9.531,-0.306,1.159,0.196691,-0.138578,-0.043316,0.23584003085901814,-0.46119053148023526,0.3558035200579919,0.7778731443055079
347,8.659590482711792,0.5175,0.0883,0.3518,-9.638,-0.4,1.755,0.264105,-0.14549,-0.043873,0.20446023919102435,-0.3702476028175319,0.45301045084298475,0.7847893058807924
348,8.685446500778198,0.5186,0.0932,0.3507,-9.713,-0.861,2.189,0.124461,-0.136023,-0.016527,0.19217727608839466,-0.2630004900759546,0.5815848372053094,0.7454245192559247
349,8.709211587905884,0.5178,0.0943,0.3502,-9.494,-0.53,2.156,0.00645,-0.120396,0.013498,0.2360135054868835,-0.10326740393995257,0.7076146919362356,0.6579627012736223
350,8.73843502998352,0.5193,0.0921,0.3475,-9.411,-0.552,1.946,-0.021584,-0.116909,0.016241,0.26499568958167774,0.08948894711402001,0.792815730447142,0.5414907482156274
351,8.76313591003418,0.5178,0.0914,0.3445,-9.434,-0.039,1.645,-0.004166,-0.131319,0.002069,0.24483243907376884,0.27426848878599297,0.8177650509782335,0.4428252411897995
352,8.783538341522217,0.5196,0.0911,0.3451,-9.603,-0.351,1.841,-0.022697,-0.153217,-0.012387,0.16979712326805746,0.399203660178628,0.8039322614691897,0.4068148148714755
353,8.828035831451416,0.5188,0.0908,0.3432,-9.617,-0.141,1.889,0.006618,-0.153011,-0.02868,0.07914526913513534,0.4784663248590728,0.7698229505618963,0.4149441253199704
354,8.83315396308899,0.5204,0.0925,0.3386,-9.588,-0.478,2.45,0.018961,-0.124926,-0.047008,-0.014190804168555088,0.47881211949263847,0.7441862582728717,0.4655366669789179
355,8.870500802993774,0.5207,0.0949,0.3365,-9.813,-0.303,2.59,-0.054163,-0.076906,-0.052832,-0.07551468658975166,0.4404446409575803,0.7010213867223252,0.5557652973323434
356,8.883968353271484,0.521,0.0944,0.3359,-9.714,-0.227,2.276,-0.132382,-0.042346,-0.080376,-0.12006721560205488,0.37589322225543687,0.5901279505804535,0.7042990495121433
357,8.937148332595825,0.5186,0.0947,0.337,-9.585,-0.03,2.359,-0.149036,-0.020966,-0.13274,-0.2535467351853131,0.32260358672931344,0.3524440117462107,0.8410851309412668
358,8.938612937927246,0.5218,0.0968,0.3362,-9.517,-0.217,2.122,-0.151008,-0.001991,-0.183781,-0.4459358014881064,0.4799616818043848,0.050582479641560096,0.7538033282653891
359,8.959463596343994,0.52,0.0982,0.3354,-9.474,-0.056,2.147,-0.105931,0.001368,-0.247915,-0.33756726019448285,0.8103308307096834,0.0737560757412942,0.47325715096276066
360,8.983443975448608,0.521,0.1022,0.3382,-9.662,-0.898,2.175,-0.104785,-0.000563,-0.260318,-0.02614522615986148,0.7487712858930068,0.32834104826735083,0.5751957445895092
361,9.008687734603882,0.5203,0.1077,0.3358,-9.687,-0.987,1.944,-0.201928,0.024048,-0.21735,-0.04009086753358376,0.5566969571242443,0.17721075062783814,0.8106032137432778
362,9.03752851486206,0.5216,0.1071,0.3361,-9.395,-0.745,1.916,-0.149779,0.04123,-0.204104,-0.1467599393443312,0.6244739181303604,-0.06596867733555639,0.7642918155973945
363,9.084407806396484,0.5203,0.1082,0.3361,-9.379,-0.925,1.959,-0.144258,0.038256,-0.198456,-0.06519410111995258,0.7803353017082619,-0.08040966381252079,0.6167340042940673
364,9.086093664169312,0.5206,0.1137,0.3345,-9.51,-1.059,1.987,-0.156364,0.031202,-0.186613,0.1139368075021048,0.7705659859714659,-0.014138387572211614,0.6269342638242932
365,9.109055280685425,0.52,0.1139,0.3375,-9.568,-1.197,1.75,-0.260706,0.037062,-0.149902,0.22119286679966407,0.6680744604843986,-0.08856132916775772,0.7049163935542044
366,9.133169412612915,0.5198,0.1185,0.3356,-9.406,-0.943,1.929,-0.213251,0.042435,-0.141288,0.2662769116954117,0.5999338032805298,-0.24591109110308118,0.7132347252145009
367,9.160781860351562,0.519,0.1188,0.3375,-9.326,-0.997,1.911,-0.175822,0.03906,-0.148543,0.292069670509582,0.598199267839117,-0.361450396435951,0.6528449696838158
368,9.184106826782227,0.5185,0.1209,0.3378,-9.419,-0.707,1.961,-0.130625,0.035971,-0.166913,0.3590556788335004,0.6058191344763282,-0.4011722287323046,0.585767051560364
369,9.209671974182129,0.5182,0.1226,0.337,-9.533,-1.131,1.946,-0.073723,0.043179,-0.171515,0.4026448126505817,0.578753294223815,-0.40273692097845054,0.5837163281521746
370,9.233264207839966,0.519,0.1255,0.3387,-9.459,-1.103,1.963,-0.05716,0.056164,-0.163156,0.3951165928445277,0.5622152012107631,-0.43636552832184494,0.580845996180459
371,9.271452188491821,0.5177,0.1283,0.3381,-9.335,-1.138,1.913,0.001164,0.05908,-0.166327,0.37410385089436077,0.6025383708277461,-0.437501172332577,0.5527988283579084
372,9.282978773117065,0.517,0.1304,0.3381,-9.446,-1.337,1.927,-2.3e-05,0.059207,-0.170778,0.3984331271576995,0.6495631111011948,-0.3758165780759193,0.5273335827758171
373,9.30988359451294,0.5162,0.1342,0.342,-9.323,-1.184,1.891,-0.044945,0.071292,-0.182835,0.46180288433613276,0.6089102837090301,-0.29882345019664996,0.5715513170527974
374,9.334820985794067,0.5178,0.1366,0.3409,-9.41,-0.899,1.872,-0.024547,0.065445,-0.232147,0.4299544076679154,0.4833911931907076,-0.3257653780877025,0.6894556404236404
375,9.35951828956604,0.517,0.141,0.3412,-9.528,-1.24,1.801,0.001909,0.067252,-0.281485,0.20713932421267675,0.5094864041009113,-0.4999216153541527,0.6690256220076576
376,9.3847496509552,0.5163,0.1464,0.3415,-9.571,-1.514,1.953,-0.057517,0.075809,-0.295113,0.2534240747478633,0.7895516473363559,-0.42025347820359366,0.36847177447454194
377,9.40990924835205,0.5144,0.1499,0.3437,-9.496,-1.426,1.931,-0.09463,0.093181,-0.312171,0.6210529304554778,0.5970214519550485,-0.0550734098704585,0.5048024990066804
378,9.434545755386353,0.5152,0.1556,0.3459,-10.001,-1.415,1.708,-0.109919,0.10248,-0.342187,0.2803305162248041,0.1641362959766306,-0.39514079831528376,0.8592658654473404
379,9.460643768310547,0.514,0.1599,0.3449,-9.919,-1.505,2.061,-0.156999,0.141026,-0.368173,0.018097521034990946,0.7240120362391803,-0.6618953381955504,0.1933225604738928
380,9.49308967590332,0.5129,0.1664,0.3498,-9.842,-1.171,2.356,-0.258533,0.160261,-0.428326,0.8344838893069547,0.41611124488509493,0.13588652545071692,0.3346982559982148
381,9.50959324836731,0.5109,0.1731,0.352,-10.581,-0.745,2.413,-0.284764,0.186274,-0.516028,-0.16015323878714727,-0.03315706651197043,-0.8223925552313242,0.5449055277260464
382,9.534278869628906,0.5106,0.1793,0.3564,-11.419,-1.459,1.651,-0.417392,0.224476,-0.569168,0.7623198310349151,0.5315865679244722,0.2474300066826899,-0.2739755241005724
383,9.575247287750244,0.5078,0.1853,0.3599,-12.071,-1.6,0.714,-0.544409,0.265681,-0.603176,-0.4465655323105175,-0.3888336168713011,-0.6858849443679048,0.42302421542086976
384,9.584110736846924,0.5062,0.1915,0.3635,-11.881,-1.583,1.09,-0.509121,0.309667,-0.612702,0.5617849896228966,0.33541732736798646,0.6880596403170995,-0.3137941575339199
385,9.628698825836182,0.5044,0.1966,0.3708,-11.866,-1.722,1.524,-0.5557,0.294114,-0.598994,-0.7841194802446791,-0.22914899787678317,-0.3325689957773782,0.47121676595862594
386,9.633702993392944,0.5039,0.2038,0.3765,-11.575,-0.709,2.001,-0.597818,0.239425,-0.581122,0.014905244945736223,0.7935558990560336,0.5961610271740283,-0.12099131549530837
387,9.668718576431274,0.5036,0.2073,0.3806,-11.704,-0.543,0.944,-0.651299,0.25539,-0.607013,-0.17177510225713843,0.19493067605089429,0.21515921370769853,0.9413829499919657
388,9.69026255607605,0.5015,0.2138,0.3852,-11.97,-0.207,0.655,-0.809088,0.237404,-0.621955,0.011763577094707406,0.7834417028102948,-0.20683238324207495,0.5859190061723942
389,9.717373132705688,0.5007,0.2175,0.3923,-12.214,-0.181,0.441,-0.698594,0.249727,-0.742237,0.26134628354136424,0.5389035468415654,-0.581357015281111,0.5507314300674475
390,9.733935832977295,0.5002,0.2272,0.4004,-12.97,-1.124,1.618,-0.301578,0.283739,-1.001616,0.6837965755805492,0.7124006326093832,-0.08984505807835771,-0.1297514833092908
391,9.759407758712769,0.4969,0.2391,0.4038,-14.383,-7.07,4.834,0.117028,0.373021,-1.674725,-0.11574258171240412,-0.7764478888207658,0.09815887914386776,0.6116348299185901
392,9.79304814338684,0.4933,0.2627,0.4085,-11.746,-3.231,5.509,-0.90462,0.068472,-1.748707,-0.7847828685351033,-0.26103493754660007,0.48818278983965924,-0.278664985849002
393,9.810604572296143,0.4871,0.2737,0.4126,-12.338,-11.408,3.379,-2.163844,-0.310835,-2.165942,-0.1884447439371996,-0.45345683975548584,0.18965158704678972,0.8502339375089921
394,9.844026803970337,0.4827,0.2818,0.4189,-14.09,-6.243,1.259,-2.996168,-0.048198,-2.025809,-0.8942032741526855,-0.16797806860317754,0.2833393296143561,-0.3031545765061955
395,9.858906030654907,0.4737,0.2814,0.4355,-12.216,-2.757,1.354,-2.833641,0.313799,-1.848129,-0.4902224253867772,0.1857757470483167,-0.5634558018682428,0.6385036450934019
396,9.884050846099854,0.4643,0.2845,0.4509,-11.071,0.285,-0.918,-1.929874,0.465238,-1.790006,-0.3150467251742458,0.6115818706088394,0.5648247821218896,-0.4557259505454304
397,9.912886142730713,0.4552,0.2928,0.4584,-7.995,-1.212,-1.794,-0.463535,0.353159,-1.782716,-0.7051905036592014,0.4323213845964804,0.1161689567340447,0.5498266521921137
398,9.933489084243774,0.4489,0.3066,0.4639,-6.459,-3.508,-1.569,0.642336,0.409993,-1.5163,-0.6648507699008447,-0.1601701244331881,-0.7200699233600036,0.11755122489208589
399,9.960896253585815,0.4417,0.3234,0.4591,-4.805,-4.7,0.049,1.259117,-0.01486,-1.189661,0.38389389332201984,-0.24689618099854965,-0.8139223582759586,0.3594414405391997
400,9.98690938949585,0.4416,0.3446,0.4469,-4.666,-3.006,-0.01,1.464795,-0.171735,-0.66957,0.3386769536260627,0.6307903499681038,-0.39118443014226223,0.5782527103991477
401,10.008971929550171,0.4423,0.3539,0.4322,-4.602,-3.168,0.646,1.717162,-0.358589,-0.238361,-0.483887803550863,0.3915500641246085,0.19287241130263522,0.758512606234757
402,10.033819675445557,0.4484,0.3606,0.4145,-3.838,-3.756,1.187,1.732131,-0.426667,0.282837,-0.48116986536692724,-0.12782288752886062,0.8671796696925356,-0.011674354736012166
403,10.082225322723389,0.4584,0.358,0.3995,-3.265,-3.638,1.579,1.455622,-0.49106,0.92271,-0.3091093413812467,-0.7288819331940269,0.34553555565730687,-0.50377348313581
404,10.083442449569702,0.4751,0.3484,0.3812,-3.516,-2.894,1.055,0.95073,-0.410323,1.552014,0.6201091787018123,-0.08018189854819466,0.5034300567681751,-0.5963167342758064
405,10.10880708694458,0.492,0.3302,0.369,-2.963,-2.209,0.044,0.727464,-0.352522,1.961489,-0.5267819078173721,0.8491170298750134,-0.01958684226310223,-0.03342823331684628
406,10.134376764297485,0.5115,0.3067,0.3587,-3.132,-2.598,-0.753,1.101036,-0.289902,2.186936,-0.27939837721400673,0.6393500807540962,0.7134062251600347,-0.06495828625217982
407,10.160478830337524,0.5297,0.2803,0.3456,-3.917,-4.835,0.199,1.208672,-0.193084,2.45896,-0.072654687858871,-0.17245079431845295,-0.9194346671409648,0.34586400901286013
408,10.183534383773804,0.5497,0.2452,0.3371,-4.542,-4.282,1.065,0.950279,-0.173841,2.58652,-0.14316743911105603,0.20876786373515588,-0.8435041947278227,0.47372960317718027
409,10.222601175308228,0.5644,0.2141,0.3294,-5.733,-3.394,0.201,1.051418,-0.175375,2.469263,0.1668074858665033,-0.24878225876509552,0.5040095296001726,-0.8100969352212402
410,10.233629941940308,0.58,0.1831,0.3219,-7.086,-5.846,1.05,1.700205,-0.121264,2.304936,-0.013662611930105126,0.03345759684827002,-0.505936685820628,-0.8618132002871767
411,10.281394004821777,0.5919,0.152,0.3131,-8.135,-7.801,2.341,1.505924,0.077747,2.189136,-0.13855349548862184,0.4906129899641066,0.7137290755765554,-0.480304725817891
412,10.283700227737427,0.6019,0.1219,0.3123,-9.159,-7.251,2.151,0.903983,0.119051,1.799301,-0.7348672641823877,-0.39926291931787067,0.36383474741259625,-0.4101018189012047
413,10.317496538162231,0.6073,0.0989,0.3097,-9.368,-6.264,1.135,0.904031,0.114112,1.219906,-0.06568566765043342,0.3294415415878069,0.19572279026511413,-0.921328526157963
414,10.33534574508667,0.6124,0.0838,0.3088,-8.832,-6.147,0.982,1.079783,0.205437,0.726722,0.13124088161707526,-0.6509318836395386,0.15242704383267086,0.7320037637623784
415,10.37205958366394,0.6155,0.074,0.3098,-8.414,-6.301,1.152,1.000023,0.302301,0.321651,0.3489615439889689,0.41151013647230394,0.8366143187372478,-0.09466641474774222
416,10.383999347686768,0.6197,0.0751,0.3145,-9.263,-11.278,9.01,1.001728,-0.090272,-0.504819,0.2896966882637718,0.04882298836590664,0.9455953766556475,-0.1397910163905021
417,10.411478519439697,0.6234,0.0895,0.3063,-14.187,-5.736,0.923,-0.117438,-0.465576,-1.045035,0.06766367016397223,-0.5953982531745297,-0.2697562461155564,0.7537599853655693
418,10.440567016601562,0.6222,0.1015,0.3031,-9.396,3.278,-2.608,-0.870031,0.307543,-0.686659,0.8139148309932926,0.39416716831118975,-0.0188822292399439,-0.42640163312729945
419,10.46806263923645,0.6233,0.1082,0.3067,-6.647,-1.631,1.658,0.126258,0.016744,-0.941375,0.22398193667950997,-0.3923490728025731,-0.889556910867356,0.06769637686305055
420,10.484103202819824,0.6268,0.1264,0.3023,-8.645,-6.55,1.01,0.388078,-0.199289,-1.010167,0.7051055735050723,0.06720751326191077,-0.7007794836694223,0.08495525670169651
421,10.50908875465393,0.6258,0.1402,0.3011,-12.222,-1.789,0.666,-0.098977,-0.064431,-0.791948,0.2163915696680131,0.17337304759695227,-0.9514091317784207,0.1339296043158124
422,10.534417867660522,0.6274,0.1508,0.2985,-9.038,-1.699,2.969,-0.047355,-0.090657,-0.751782,0.44391168376810486,0.6937071077422279,-0.26801417303076147,-0.499881254636255
423,10.575534582138062,0.627,0.1606,0.2981,-8.078,-5.189,2.731,-0.027544,-0.026118,-0.687725,0.7834347644514648,0.020835347765340656,0.6204338898633381,0.02928560126448866
424,10.584011793136597,0.6273,0.1728,0.2977,-8.669,-4.148,2.851,0.012831,0.084976,-0.500279,0.06309501424789044,-0.7153695876523529,0.3299968770093949,0.6126723703605436
425,10.610174655914307,0.6263,0.1777,0.2977,-9.225,-3.854,2.756,0.057247,0.186393,-0.330829,-0.7611768856659664,-0.5100228505892163,-0.2785532863174205,0.2879140623284585
426,10.637127161026001,0.6268,0.1828,0.3032,-9.147,-4.832,2.666,0.132697,0.265812,-0.159969,-0.8337211718642963,0.11860987092666408,-0.3336088220168522,-0.4237285215518454
427,10.660857915878296,0.6252,0.1825,0.3069,-8.677,-5.386,1.687,0.143619,0.314706,0.044064,-0.35356948350317,0.4951535306008662,0.0005413515579810457,-0.7936065198870844
428,10.691694974899292,0.6244,0.1814,0.3088,-9.108,-4.532,1.341,0.071404,0.211925,0.235327,0.0033865035007362154,0.6288666365293504,0.13738146477440902,-0.7652722510262209
429,10.708888292312622,0.6239,0.1778,0.3125,-8.813,-4.016,1.39,0.041378,0.079437,0.374687,-0.06215084333222898,0.7492420317392787,-0.16378688068292988,-0.6387076860853065
430,10.73749041557312,0.6244,0.1724,0.3117,-9.018,-4.143,1.542,-0.055696,-0.000586,0.508954,-0.34201863955003114,0.5747890512889905,-0.721238173991701,-0.18015630184860368
431,10.759977102279663,0.6254,0.1627,0.311,-9.04,-3.059,1.769,-0.076526,-0.045073,0.571098,-0.09167993251009884,0.008753529071138029,-0.8062354928837763,0.5843821486991188
432,10.79311466217041,0.6263,0.154,0.315,-8.919,-3.086,1.768,-0.083106,-0.062734,0.604298,0.6607267024326925,0.01503013461778574,-0.3556867446230718,0.6608337608243341
433,10.809083223342896,0.626,0.1442,0.3117,-9.035,-2.793,1.887,-0.030976,-0.062633,0.660552,0.7212016953078847,0.41144037305423453,-0.4928345517340623,0.26019038937499434
434,10.840839385986328,0.627,0.1356,0.3116,-9.361,-2.814,2.208,-0.012733,-0.034397,0.693422,0.7281637331266045,0.2177964200874132,-0.541359788659261,0.3595439839283011
435,10.858765602111816,0.6267,0.1255,0.311,-9.167,-2.379,2.42,0.00156,-0.007147,0.701375,0.6331308410055223,0.5815090498107749,-0.49301041726148986,-0.13391524046000727
436,10.884282112121582,0.6277,0.115,0.313,-9.284,-2.201,1.964,0.028568,0.028712,0.678143,-0.13455960456908028,-0.01728701967445364,-0.9424380553935455,0.3056229433714361
437,10.931934833526611,0.6248,0.1041,0.3129,-9.092,-1.771,1.933,-0.050524,0.019237,0.638082,0.6740061931702219,-0.42273471151310205,0.2771193323141837,0.5387168930967925
438,10.937567234039307,0.6271,0.096,0.3115,-9.671,-1.099,2.051,0.020241,0.030573,0.587401,0.1703305458253061,0.6825291010239216,0.18513694548034798,-0.6861966502632736
439,10.961129426956177,0.6257,0.0897,0.3147,-9.123,-1.155,2.069,-0.042872,0.023534,0.490124,-0.8692280123923992,-0.09816401454944224,-0.4842342885969978,0.017990065782405314
440,10.985761642456055,0.6265,0.0819,0.3149,-9.659,-0.98,2.124,-0.142219,0.041652,0.404406,-0.24251338006486067,-0.6542232893757025,0.42571540057616286,0.5761471564107814
441,11.026944398880005,0.6252,0.0767,0.3156,-9.292,-0.742,1.88,-0.159891,0.069389,0.307759,0.09106684740542018,-0.13961135583805012,0.9756685077285407,0.1424305502743761
442,11.034676313400269,0.6257,0.0735,0.3148,-9.643,-0.827,2.005,-0.20311,0.007364,0.186479,-0.05266593488572601,0.30565992735427755,0.9351219730701469,-0.17130441790504375
443,11.05938982963562,0.623,0.0654,0.3125,-9.327,-1.318,1.746,-0.194831,-0.008257,0.099791,-0.21530783768350295,0.5277896304982673,0.7923094871898747,-0.21754612724540634
444,11.086012125015259,0.6262,0.0686,0.3155,-9.429,-0.992,2.084,-0.171948,0.006466,0.037542,-0.2605317443503817,0.6216190729615128,0.7218214228909735,-0.1571202462188346
445,11.131335973739624,0.6235,0.0678,0.316,-9.386,-1.278,2.1,-0.127749,0.021865,-0.005078,-0.2022442621723783,0.6404679316606048,0.7373159515862153,-0.07254842844094575
446,11.13302493095398,0.6251,0.0667,0.316,-9.624,-1.415,1.927,-0.198755,0.026747,-0.032651,-0.07528191293750298,0.5990879273427285,0.793044043465546,0.08066866814619625
447,11.158857822418213,0.6248,0.0661,0.3171,-9.779,-0.497,1.935,-0.281656,0.047734,-0.104731,0.08561344894649141,0.4004158067975874,0.8162032817135884,0.4076146733694609
448,11.183811664581299,0.6251,0.068,0.3163,-9.351,-1.226,2.003,-0.225728,0.038745,-0.188104,-0.03310462658475301,0.03002863957206503,0.5204642805881762,0.8527129042860601
449,11.23529314994812,0.6228,0.0694,0.3171,-9.366,-2.033,2.023,-0.19893,0.056124,-0.194155,-0.498510113694784,0.03034722632802141,-0.09774657787662613,0.8608207240254024
450,11.236318588256836,0.6241,0.071,0.3185,-9.412,-1.886,1.808,-0.255939,0.079158,-0.173687,-0.6411883228392895,0.5742982264511135,-0.39680579269446575,0.3187542072408791
451,11.27202582359314,0.6238,0.0734,0.318,-9.363,-1.938,1.905,-0.247833,0.087709,-0.174105,-0.12072727980581414,0.985937638053442,-0.035825322760595274,-0.10985647012983638
452,11.283858060836792,0.6223,0.0761,0.3215,-9.621,-1.314,1.742,-0.346275,0.102709,-0.200082,0.5683568583362778,0.6409403760974323,0.4813297677973164,0.18570829411305156
453,11.312771558761597,0.622,0.0756,0.3226,-9.738,-1.041,1.955,-0.368238,0.112998,-0.306629,0.3154309634262588,-0.226799768807366,0.06433962040853587,0.9191983384594389
454,11.333384037017822,0.6217,0.0794,0.3232,-9.319,-1.412,1.934,-0.370265,0.128338,-0.40922,-0.4954895831574857,0.3302331720604346,-0.7922434691576343,0.13336570260153413
455,11.375442266464233,0.6202,0.0842,0.3259,-9.501,-1.575,2.064,-0.411359,0.161147,-0.47236,0.6597968056979271,0.5172000655380943,0.445499202270323,-0.3141699033559847
456,11.383289575576782,0.6194,0.0915,0.3303,-9.866,-2.09,1.969,-0.397434,0.193808,-0.469367,-0.15897394245185656,-0.6856297208454302,-0.1673030545986922,0.690397609669007
457,11.424824237823486,0.6173,0.095,0.3319,-11.463,-1.736,1.07,-0.355528,0.276403,-0.416357,-0.4556826735385114,0.572068042241474,-0.22821984417963365,-0.6426563302461317
458,11.434737920761108,0.6158,0.1015,0.3376,-11.315,-1.742,2.178,-0.118424,0.337365,-0.431091,0.3734217011684384,-0.38324407600963784,0.7922232958359625,0.29336404148223993
459,11.460419178009033,0.6129,0.1017,0.3427,-12.476,-2.177,1.988,-0.39548,0.261227,-0.450439,-0.9342232770747991,-0.1918277880926187,-0.2712936039581855,0.12972566723087503
460,11.492622375488281,0.6087,0.1079,0.3468,-14.301,-0.825,1.371,-0.611179,0.223668,-0.514095,-0.1812795705518659,0.5599751258238908,0.7372557694636143,-0.33169188436207275
461,11.509928226470947,0.6027,0.1087,0.3481,-14.444,-0.512,1.348,-0.820045,0.227289,-0.538265,-0.37652529852482974,0.03617201843029719,0.5380540310162057,0.7532716272107146
462,11.534776449203491,0.5975,0.1089,0.3551,-12.62,0.781,1.436,-0.945317,0.279388,-0.585782,-0.2897295956830307,0.7848110341906611,0.05163306683090363,0.54540116282198
463,11.559746503829956,0.5896,0.1077,0.3601,-12.106,2.391,1.079,-0.911765,0.210776,-0.752227,0.1332750040647716,0.6548874881764524,-0.38698224502376843,0.6352990580489131
464,11.593658924102783,0.5808,0.1128,0.3625,-12.258,0.993,1.211,-0.466225,0.136982,-1.050393,0.602234145173327,0.7832995198767561,-0.1167431702243601,-0.10063264258759015
465,11.61044692993164,0.5724,0.1212,0.3614,-13.85,0.657,2.468,-0.076665,0.033961,-1.232885,0.6589161695756535,-0.12489962808814531,0.7391707642836903,0.06209787116686699
466,11.6361825466156,0.5641,0.1304,0.3625,-11.855,-2.375,3.365,0.045698,0.027813,-1.137512,-0.1990241768875189,-0.7413739535282865,0.6405503439910627,0.021196576539971465
467,11.661523342132568,0.5535,0.1369,0.3617,-12.843,-5.409,3.273,-0.511962,0.073819,-1.069882,-0.5500620495937167,-0.3628196036135979,0.5824390073207071,-0.47598159584347427
468,11.686352014541626,0.5407,0.139,0.3638,-11.864,-8.743,3.74,-2.012931,0.050477,-1.247531,0.030368593518352943,-0.11821908239547202,0.8821055805425411,0.45496345112656716
469,11.711220741271973,0.5258,0.1381,0.3672,-12.477,-6.047,3.423,-2.543819,0.091637,-1.522163,-0.718870126377193,-0.4801725169490998,-0.4944190544866775,0.0906084650002685
470,11.736632108688354,0.5127,0.1407,0.3719,-11.067,-3.986,0.474,-2.49869,0.109461,-1.597865,-0.5086086886858746,0.5491582616281618,0.5319105684722911,0.3959969098695778
471,11.77245020866394,0.4957,0.1423,0.374,-10.61,-4.976,-1.718,-2.31401,0.193895,-1.448631,-0.1947644538711621,0.5596317455682336,-0.8029777845983815,-0.06407647229673992
472,11.79113221168518,0.4772,0.1435,0.3849,-8.557,-3.046,-2.388,-1.592954,0.495943,-1.195217,0.3685490012040797,0.4885930211837279,0.7722513629287487,-0.17051781671345262
473,11.809046268463135,0.4609,0.1448,0.391,-6.671,-2.032,-2.025,-0.152455,0.535889,-1.007552,-0.09051706540494078,0.4140638775020914,0.47589603568432787,0.7706365741634325
474,11.839415788650513,0.4464,0.1588,0.3947,-5.735,-4.163,-0.861,1.134056,0.367916,-0.871054,-0.7195159693796342,0.5366854514248972,0.3970432606823344,0.19136913330858613
475,11.866539001464844,0.4342,0.1691,0.3937,-4.367,-4.639,0.064,1.714592,0.056169,-0.700451,-0.9327893591670873,-0.2486416600934549,-0.18338090901900017,-0.18561459667275831
476,11.884409427642822,0.4223,0.1845,0.3856,-3.75,-3.981,0.478,1.8982,-0.238656,-0.437384,0.17845226571704922,-0.855826960743231,0.0884865134210599,0.4773731654251634
477,11.925084590911865,0.4148,0.1954,0.3765,-3.548,-3.496,0.824,1.94902,-0.38968,-0.015088,0.617567568297466,0.46695198016538086,0.41471044110293237,-0.4781018686922231
478,11.935676574707031,0.4091,0.2001,0.3662,-2.462,-3.584,1.037,1.818764,-0.426398,0.563557,-0.5382811993989798,0.39770004572483963,-0.7376605339593733,0.08913450870918918
479,11.959194421768188,0.4058,0.1988,0.3565,-2.099,-2.218,0.838,1.495379,-0.395238,1.051235,-0.24674238896943623,0.08495279313255014,0.4420621816103343,0.8581854368459917
480,11.994301080703735,0.4055,0.191,0.3459,-2.407,-0.476,0.314,1.492743,-0.376439,1.477072,-0.8181613690844831,-0.13923456629466888,0.5297293825377731,0.17496425624306594
481,12.008995771408081,0.4044,0.1807,0.3385,-2.705,-2.586,0.179,2.00072,-0.342174,1.714179,0.6184737628503455,0.09023202016895637,0.7233355121795852,-0.29348615643989207
482,12.033731698989868,0.4039,0.1697,0.3284,-3.745,-3.656,0.644,1.943858,-0.211079,2.090865,-0.7413920104836336,0.32515977937945106,0.19789053260570783,0.5526738113661365
483,12.059127807617188,0.4028,0.1537,0.3231,-4.729,-3.189,1.528,1.77386,-0.136001,2.270975,-0.7682247711308572,-0.564214874328225,-0.10223812551014283,0.28467462531792254
484,12.086410760879517,0.3998,0.1353,0.3173,-6.109,-3.24,1.823,1.871581,-0.034552,2.303274,-0.04149443466895658,0.9782101622991052,-0.11039584245460612,0.17086792629103917
485,12.10935115814209,0.3953,0.1207,0.3171,-7.222,-5.149,2.429,2.017885,0.065697,2.224226,-0.9304715382853566,0.0017550481796467189,-0.02301292095686593,0.36563648849068997
486,12.133925437927246,0.3919,0.1096,0.3134,-8.19,-6.546,2.941,1.878829,0.117938,2.010864,-0.3422715808348234,0.5076430728519591,-0.790661912793819,0.0015540899173441536
487,12.177408933639526,0.3848,0.0982,0.3135,-9.419,-7.837,3.544,1.434891,0.088654,1.690364,-0.2431348496666976,0.7027764044206479,0.19433714350970396,0.6397060613435104
488,12.183546543121338,0.3795,0.089,0.3139,-9.31,-8.196,3.626,0.601852,-0.069104,1.305865,-0.4907349558450292,-0.04382877291333043,0.38222217394013974,0.7817700758696015
489,12.210070848464966,0.3751,0.0819,0.3119,-9.356,-7.55,2.896,-0.028744,-0.198364,0.783821,-0.807475016172489,0.5630277536828121,-0.16721906802638475,-0.0549693562679483
490,12.235107421875,0.3732,0.0795,0.3092,-8.551,-6.645,1.934,-0.319708,-0.197383,0.303819,-0.1600526107990505,-0.3093327116525791,0.3137093454129597,0.8833362224423057
491,12.259994983673096,0.3693,0.0773,0.3094,-7.579,-5.355,0.782,-0.480997,-0.056332,-0.052331,0.10848794474491372,-0.15617652260627846,0.38570822738477434,0.9028113994402874
492,12.306813478469849,0.3672,0.0811,0.3076,-8.584,-7.708,3.293,-0.067673,-0.124435,-0.615523,-0.4871264613803422,0.133409636479169,-0.2850369667390782,0.8146555143800033
493,12.310933351516724,0.3636,0.0911,0.3052,-15.958,-3.401,4.058,-0.027727,-0.588338,-0.975124,-0.30412461679879305,0.7241790246746004,0.24407590298158305,0.5687705260138369
494,12.333742141723633,0.3629,0.0998,0.3053,-13.195,-2.126,-5.233,-0.502183,0.754188,-1.096373,0.10635079409132348,0.7373590664509453,0.16315697327679504,0.6468159844885487
495,12.359792709350586,0.3593,0.1079,0.3107,-2.546,-0.497,5.763,0.377245,0.109385,-0.992813,-0.3921393646585026,0.814953586233394,-0.12231541756627737,0.4087986174097747
496,12.383670568466187,0.3562,0.1244,0.3136,-9.265,-6.998,0.768,-0.038681,0.045887,-0.984677,0.4177862386665645,0.23058250927951063,0.7497688689524051,0.45840267052564165
497,12.409687995910645,0.3515,0.1301,0.313,-10.596,-2.605,1.934,-0.190823,0.105773,-0.680427,-0.6790374160546839,-0.17134965691145201,-0.5610466767936971,0.44133219816013247
498,12.43503999710083,0.3526,0.1347,0.3142,-8.906,-3.794,3.375,-0.349254,0.104488,-0.48923,-0.11437465872150974,0.6565754442215596,-0.13450054279239398,-0.7333053439571756
499,12.459981918334961,0.3495,0.1374,0.3147,-9.092,-3.885,2.788,-0.210244,0.187585,-0.259257,0.6713876703654448,0.09449903453909264,0.645604135342985,-0.35143111555534856
500,12.484636545181274,0.3479,0.1387,0.3185,-8.804,-3.584,3.454,0.03524,0.31138,-0.087774,0.4925563754061976,-0.6091178959694169,0.47350722430369085,0.4026841372449552
501,12.509554147720337,0.3455,0.1395,0.3217,-7.746,-4.082,3.443,0.220667,0.307329,0.067646,-0.006590836452577048,-0.7109040516047129,-0.008573051234755782,0.7032058682060219
502,12.54469895362854,0.3458,0.1381,0.3244,-9.554,-4.244,1.822,0.359596,0.388929,0.193091,-0.4665840509464353,-0.426396365138926,-0.3129829560561129,0.7088914814110149
503,12.5591402053833,0.3447,0.137,0.326,-9.483,-3.815,1.479,0.223199,0.330458,0.299261,-0.7362631719878586,-0.06248285323662704,-0.28321043337201324,0.6113953590394872
504,12.584430694580078,0.3439,0.134,0.3297,-9.249,-3.528,0.369,0.206425,0.260172,0.376836,-0.7841070129270549,0.0769190664753178,0.02099713996842946,0.6154825502029471
505,12.61000680923462,0.3431,0.1329,0.3327,-9.302,-3.515,0.533,0.102471,0.140421,0.465016,-0.6405572071704081,0.1282764196975217,0.41871757439021084,0.6307988723740797
506,12.636268615722656,0.3454,0.1269,0.3302,-9.294,-3.768,1.281,-0.029249,0.072209,0.539001,-0.5590109313826871,0.3788846037156455,0.5903238082816105,0.44212106604163914
507,12.677775621414185,0.3464,0.1207,0.3323,-8.997,-2.633,1.716,-0.111386,0.006065,0.600295,-0.7091284569125853,0.39983408402009485,0.30712591027743175,0.49289269835213256
508,12.684024572372437,0.3496,0.1161,0.3307,-9.383,-2.448,2.094,-0.07802,0.008527,0.612292,-0.26325070279969404,0.022757435950365723,0.496390858978104,0.8269082668031638
509,12.723899364471436,0.3485,0.1093,0.3317,-9.216,-2.027,2.349,-0.079304,0.04897,0.609946,0.3065185472955603,0.5413232610889587,0.7780617822167223,0.08738060552303503
510,12.733814477920532,0.3521,0.1034,0.333,-9.003,-1.583,1.847,-0.125191,0.054242,0.568538,-0.3910657526702661,0.7659111398844629,-0.21172540369802884,-0.4643490673170642
511,12.77318811416626,0.3518,0.0966,0.3346,-9.516,-1.333,1.468,-0.063016,0.062026,0.48599,-0.6462431298058141,-0.2786706339137986,-0.6784973971973095,0.21060336409787855
512,12.78455114364624,0.3515,0.0933,0.3324,-9.567,-1.006,1.58,-0.041377,0.005114,0.380917,0.21419301325141454,-0.8469665998069558,0.06832126943642843,0.4817687578375317
513,12.809955358505249,0.3523,0.0876,0.3339,-9.406,-1.513,1.846,-0.13979,-0.023371,0.29879,0.7217933877600744,-0.35263405608940146,0.5545573469506068,-0.21709370514797582
514,12.843542575836182,0.3546,0.0849,0.3323,-9.44,-0.739,2.008,-0.288302,-0.053057,0.219928,0.4142160435628244,0.10538125151842552,0.35223965915318256,-0.832614606887977
515,12.863465070724487,0.3541,0.082,0.3334,-9.272,-0.916,1.82,-0.249386,-0.104528,0.067862,-0.014978675530469374,0.22199781240132888,0.06828251729003658,-0.9725379727295553
516,12.884761095046997,0.3549,0.0817,0.3307,-9.357,-1.131,1.855,-0.257982,-0.102572,-0.042642,-0.19860261410550828,0.28333721039296245,-0.007822341109071394,-0.9381981868756546
517,12.908615589141846,0.3546,0.0801,0.3325,-9.576,-1.439,1.933,-0.306027,-0.079337,-0.118416,-0.09512290402004563,0.40079069722499683,0.16727550438756272,-0.8957328596074727
518,12.939684867858887,0.3564,0.0828,0.331,-9.724,-1.499,2.008,-0.367393,-0.038762,-0.155122,0.25888018823169756,0.38222694232151466,0.539847121871004,-0.7038811673231922
519,12.958295345306396,0.3557,0.082,0.3293,-9.432,-1.193,2.064,-0.414672,-0.026879,-0.226195,0.5818896975789298,-0.044787304588956606,0.8054271858669633,-0.10337081534737944
520,12.984231948852539,0.3567,0.0836,0.3288,-9.189,-1.553,1.984,-0.381312,-0.021063,-0.317517,0.2417569441640126,-0.6629106071299874,0.2890321804227067,0.6469648410718514
521,13.008346796035767,0.3552,0.0863,0.3299,-9.268,-1.582,2.013,-0.383576,0.002911,-0.361085,-0.5066325737449078,-0.33581313873308577,-0.7112449558856923,0.353105626975843
522,13.033442497253418,0.356,0.0888,0.3297,-9.677,-1.626,1.936,-0.321957,0.028953,-0.407168,-0.08551660168071645,0.5474041976022335,-0.5590135627527173,-0.6168787497903867
523,13.081296443939209,0.356,0.0904,0.331,-9.634,-2.146,2.12,-0.322609,0.055266,-0.468545,0.922065711706854,0.0695929315342889,0.20445548092393886,-0.32116911977205626
524,13.085813999176025,0.3542,0.0972,0.3308,-9.76,-2.211,2.362,-0.468695,0.093607,-0.490362,0.41387799484229965,-0.7679631656311325,-0.4411050215327881,0.2106274948758722
525,13.115507125854492,0.3529,0.099,0.3324,-10.097,-1.739,2.454,-0.524346,0.172621,-0.556226,0.11989455639050131,-0.25240786270151755,-0.6364596287029779,-0.7189121693403474
526,13.14069938659668,0.3531,0.1039,0.3336,-10.394,-2.24,2.531,-0.494342,0.263517,-0.590399,0.4105556406381201,-0.672794897781261,-0.060232208854810565,-0.6125056509749078
527,13.166398048400879,0.3503,0.1077,0.3379,-11.439,-1.551,1.301,-0.583198,0.390579,-0.662523,0.03395074616562371,-0.7064416442335499,-0.010738190508616074,-0.70687498285906
528,13.184062957763672,0.3487,0.1147,0.3404,-12.457,-1.762,0.547,-0.344401,0.287693,-0.777852,-0.4120028471575692,-0.6941989338871972,-0.09568463506741001,-0.5823967245237152
529,13.2085440158844,0.3467,0.1222,0.3447,-11.993,-2.079,1.75,-0.371734,0.191771,-0.807444,0.09585226533571248,0.009742999140951142,0.4789680248011142,-0.8725291103544173
530,13.2343008518219,0.3467,0.1325,0.347,-13.424,-1.634,3.124,-0.579894,0.185496,-0.761277,0.20203961147713134,-0.7411324720755644,0.4296156515120621,0.4746925807353631
531,13.260160446166992,0.3454,0.1374,0.3476,-14.384,-1.469,2.448,-0.792881,0.200221,-0.636729,-0.5792026777551578,-0.018226627939111728,-0.8062007055688213,0.11929991808697452
532,13.283849000930786,0.346,0.1474,0.3512,-13.265,0.381,0.819,-1.13399,0.286608,-0.531325,0.6104639158773872,0.45950360946211394,-0.06513869785891863,-0.6418311229164411
533,13.31012773513794,0.3444,0.153,0.3566,-11.656,1.995,1.324,-1.024556,0.290809,-0.6099,0.5040398958631872,-0.8583169637763457,-0.08839905714656443,-0.03770119053267962
534,13.347283363342285,0.3447,0.1614,0.3602,-11.982,-1.48,2.654,-0.632407,0.094821,-1.063041,-0.044832057468192354,-0.731142269384741,-0.13750864841213006,-0.6667176614984551
535,13.358362197875977,0.3424,0.1763,0.3614,-13.238,-0.282,2.665,-0.395554,-0.07323,-1.298622,0.295603240416887,-0.7303538476665535,0.5534717684803002,-0.2699462593720942
536,13.38438081741333,0.342,0.1985,0.3613,-12.371,-1.873,3.682,-0.201958,-0.212435,-1.306979,0.5757097050048803,-0.37100320271045906,0.5009057327875048,0.5291582050789618
537,13.425949335098267,0.34,0.2164,0.3615,-11.675,-4.806,2.679,-0.408294,-0.243761,-1.411407,0.6113417734987652,0.31563844533589186,-0.14758943886301465,0.710528652017233
538,13.433427095413208,0.3391,0.2335,0.3622,-11.903,-11.657,4.177,-1.472116,-0.307858,-1.57599,0.44708300826352865,0.5007147215757716,-0.6818692328520213,-0.29061297391741997
539,13.472640752792358,0.3375,0.2459,0.3696,-10.463,-6.321,2.133,-2.516561,-0.077922,-1.5312,0.6097648043330897,0.411634666811147,0.6558467219479176,-0.16914154364341027
540,13.483705759048462,0.3365,0.2547,0.3842,-8.683,-4.621,0.461,-2.498422,0.135568,-1.554819,0.6659370872497832,-0.21757024562069843,-0.6923236930272259,0.1728551072978963
541,13.53016710281372,0.3328,0.2614,0.3961,-6.683,-5.19,-1.374,-2.267292,0.128941,-1.397271,0.36886731769409514,-0.698485502517009,0.535152088822565,-0.2994447303586595
542,13.533736228942871,0.3315,0.2667,0.4094,-5.562,-4.678,-2.049,-1.866319,0.185777,-1.146783,-0.1452174761448511,-0.6721639379941093,-0.28331812464284195,0.6684596961158047
543,13.560383796691895,0.3309,0.2713,0.4178,-5.115,-3.011,-2.772,-0.897286,0.184937,-1.092874,-0.1109556503261854,-0.578981166402759,-0.7292126430344625,-0.3474457854835593
544,13.584190607070923,0.3286,0.2834,0.4241,-4.536,-1.723,-2.504,0.094437,0.225519,-0.815855,0.28845392363603173,-0.6557591816662355,-0.24103162629228655,-0.6547350492575628
545,13.612127304077148,0.3282,0.2943,0.4237,-4.019,-1.376,-2.025,0.972846,0.21588,-0.436352,0.799065756759563,-0.3427474739120051,-0.162872939223278,-0.46635875800715565
546,13.634702682495117,0.3303,0.3054,0.4178,-2.868,-2.399,-1.178,1.507584,0.124354,-0.054437,0.7934932075759782,0.5080858899775141,-0.2918883040430797,-0.1643729780085443
547,13.66020941734314,0.3333,0.3172,0.4115,-2.204,-0.995,-0.838,1.643903,-0.017877,0.325302,-0.07641203165704481,0.927723372690979,-0.21704297107921827,0.29390966960279313
548,13.696858167648315,0.3415,0.3284,0.3982,-2.112,0.284,-0.864,1.951446,-0.021902,0.837337,-0.7076545976281682,0.25571693646627686,0.5999888334733339,0.27174844722155395
549,13.712877988815308,0.3512,0.3339,0.3857,-2.88,-0.608,-0.668,2.116173,0.066044,1.478009,-0.21531052630042782,0.0673110269883093,0.22847935761611912,-0.9470521559308851
550,13.734804153442383,0.3669,0.3319,0.372,-3.253,-1.428,0.537,2.15107,0.076813,2.071327,-0.9241724937470066,0.21312038558657087,-0.28431051473861507,0.14018714013037678
551,13.761453866958618,0.3842,0.3198,0.361,-4.361,-1.929,1.421,1.949001,0.151177,2.65208,-0.3473205067577799,0.02671625303673994,0.29228183768808297,-0.8906323791367978
552,13.793478965759277,0.4087,0.3045,0.3492,-6.005,-1.737,1.614,1.774787,0.250559,3.176561,-0.6043946685388986,0.4743816877495478,0.2021422113809117,0.6072953361814005
553,13.814557313919067,0.4305,0.2765,0.3426,-8.059,-1.972,2.202,1.624772,0.306144,3.60342,-0.1440450838250419,0.35123991855974557,-0.9034030073893646,-0.19936032623325867
554,13.834325551986694,0.452,0.243,0.3365,-9.47,-2.325,2.627,1.323642,0.313426,3.9688,-0.724597509687752,0.06748860922644156,-0.6385460162737783,-0.2503252318082947
555,13.859611749649048,0.4696,0.1981,0.3349,-10.757,-2.639,2.963,0.856067,0.21423,4.223068,0.6222311704510978,-0.46536021817215845,0.5838886597403543,0.23524938020838856
556,13.884994506835938,0.4881,0.1401,0.3334,-12.337,-2.599,3.084,0.501712,0.020989,4.338256,-0.7537041581069029,0.37591073839054595,-0.4042340745670673,0.35667348061489823
557,13.910829544067383,0.4948,0.0849,0.3289,-12.685,-2.274,2.837,0.144692,-0.161303,4.344764,0.1300454055021207,-0.7469415050476511,-0.46360974706790525,-0.4585112680933499
558,13.935707807540894,0.4961,0.0267,0.3227,-13.5,-2.172,2.161,-0.211129,-0.313298,4.195122,0.17699372180780848,0.830257168555944,-0.528518656325862,0.0037797377676248856
559,13.962530612945557,0.488,-0.0281,0.3197,-13.963,-1.798,1.303,-0.519941,-0.277687,3.834167,-0.3798354108287012,0.025319193554257102,0.7785077555341452,-0.49900869099800405
560,13.985097169876099,0.475,-0.0837,0.3125,-14.027,-3.044,0.969,-0.494622,-0.187687,3.106961,-0.08631381702543345,0.69500968439586,-0.13138290135893804,-0.7016052998780544
561,14.026299953460693,0.4631,-0.1159,0.3067,-12.193,-5.215,0.892,-0.297411,-0.273411,2.084121,0.5257916038418623,-0.3505567086446144,-0.6762123026582628,-0.37866885941052386
562,14.033812046051025,0.4562,-0.1379,0.3059,-11.615,-5.643,0.464,0.057704,-0.368331,0.886233,-0.10098686462090725,-0.711246392797197,-0.6143280102377471,0.3263913567243233
563,14.060678720474243,0.4528,-0.1425,0.3007,-10.235,-6.157,0.966,-0.215189,-0.162091,-0.393048,-0.47535925764239567,-0.31411600917880156,-0.8200417987763474,0.05381595684280108
564,14.089401960372925,0.4563,-0.1327,0.2976,-10.874,-4.197,0.295,-0.278045,-0.150871,-1.26881,0.6588294259939564,-0.04514034869456554,-0.08697525853266544,-0.7458829940194258
565,14.116855144500732,0.4618,-0.1177,0.2954,-8.458,16.116,4.161,0.962967,-0.110589,-0.778714,0.6763446932167704,-0.18600990015358254,-0.6436570179858676,-0.3060454479320148
566,14.137792110443115,0.4634,-0.1099,0.3014,-14.861,0.692,-5.891,0.14314,0.409643,-0.852119,0.7550212884000239,0.19189874004997934,-0.4703136795135715,-0.41463570817333595
567,14.158703565597534,0.4663,-0.0939,0.304,-13.694,-4.571,5.39,1.314863,-0.386456,-1.620785,0.0382201089188825,-0.5984075455463207,-0.2620710871608306,0.7561523510389935
568,14.19182300567627,0.4746,-0.0687,0.303,-9.914,1.466,-1.636,1.327476,-0.028877,-1.490416,0.16383909434441948,-0.9203629639992765,0.25782751065873655,0.24415925214987494
569,14.2171471118927,0.4802,-0.0483,0.304,-9.025,-2.788,3.003,0.653935,-0.218165,-1.439833,0.6895858745057717,-0.524366397837577,-0.22817141117327122,-0.4443523485075238
570,14.23411774635315,0.4847,-0.0329,0.3037,-9.523,-1.961,2.072,-0.587241,-0.136726,-1.202778,0.35201102848741883,-0.41294437643907,-0.6426896896311667,-0.5408466886580445
571,14.260581254959106,0.4866,-0.0217,0.3006,-9.704,1.293,0.081,-0.626855,-0.090433,-0.995404,-0.1312065615706921,-0.2507895895222364,-0.48683823885292216,-0.826364295682388
572,14.284889459609985,0.4901,-0.0082,0.2988,-9.567,2.478,1.656,0.393574,-0.082566,-0.972289,-0.2236595013147188,0.03354218638832,-0.5441437002044638,-0.8079350114531102
573,14.309478044509888,0.4898,0.0021,0.3,-9.129,-1.3,2.973,0.321078,-0.085962,-0.900641,-0.2096602150878065,0.28762331613920444,-0.6245745479508507,-0.6951417526479132
574,14.334125757217407,0.493,0.0146,0.2999,-9.369,-0.328,3.246,-0.499541,0.077319,-0.741227,-0.44884974887648144,0.2846942124006759,-0.6680547502888433,-0.5207551814198197
575,14.358882665634155,0.4933,0.0219,0.2997,-10.188,0.508,0.537,-0.372641,0.048205,-0.719179,-0.6641550359215109,0.08397247072964181,-0.7176368005753395,-0.1919482609445746
576,14.383550643920898,0.4944,0.0328,0.2987,-9.773,0.389,1.262,0.121759,0.029561,-0.7508,-0.7069747933568513,0.006458943506207959,-0.7071761473805218,-0.006842527520124375
577,14.408795833587646,0.4953,0.0414,0.3002,-9.354,-1.168,1.94,-0.014821,0.014738,-0.678028,0.18745713554724064,0.6832699195749196,0.17376604148775965,-0.6839644743421844
578,14.448611974716187,0.4963,0.0482,0.2997,-9.419,-0.75,1.626,-0.07077,0.012062,-0.569782,-0.5936207576882285,0.4061671890879085,-0.5649662287154978,-0.40429663733584076
579,14.45789647102356,0.4958,0.0542,0.3016,-9.59,-0.936,1.612,0.050223,0.010068,-0.482406,-0.11761837726680247,-0.7006259162741464,-0.011263548096219822,0.7036777495831605
580,14.492422103881836,0.4954,0.0612,0.2987,-9.589,-1.156,1.521,-0.05342,0.024903,-0.387595,0.13315818890425257,0.662065189673535,0.32602792204563047,-0.6615469563053658
581,14.508241653442383,0.4959,0.0664,0.3012,-9.752,-0.486,1.41,-0.145041,0.020771,-0.349269,-0.18807715417650628,-0.6824237563395973,0.08573732443234988,0.7011233215771693
582,14.536102771759033,0.4967,0.0683,0.3012,-9.63,-0.222,1.895,-0.115571,0.019052,-0.37878,-0.32922395510547936,0.6924585772867256,0.04548382215998831,-0.6403467248674486
583,14.567949533462524,0.4972,0.0713,0.3013,-9.685,-0.206,1.845,-0.188031,0.023488,-0.429081,-0.0836619497278466,-0.5756346531259648,0.41811367831766577,0.6977294434750171
584,14.584490299224854,0.497,0.0802,0.2995,-9.476,-0.18,1.868,-0.138013,0.030795,-0.525835,-0.2542151395051998,0.7216523865639299,0.3996850604732412,-0.5048211051921636
585,14.611696004867554,0.4963,0.0867,0.3003,-9.59,-0.008,1.778,-0.081867,0.043908,-0.634945,-0.8729005247744569,-0.14767730933580853,-0.025792687937660083,0.46429605146368014
586,14.63429856300354,0.4968,0.094,0.3026,-9.617,-0.359,2.021,-0.001124,0.06617,-0.732048,-0.19935095977370065,-0.05109156272239128,0.877893509884024,0.4323792691138157
587,14.665251731872559,0.4953,0.1038,0.3037,-9.473,-0.91,1.833,0.037795,0.088624,-0.796165,-0.5756842417632707,0.39598464085973645,0.7142653917815184,-0.04010945140272709
588,14.68384575843811,0.4949,0.1165,0.3025,-9.527,-0.78,1.683,0.014391,0.087347,-0.872644,-0.6706416903953359,0.1343794377180984,0.7178240418148522,0.13004051220617113
589,14.732217073440552,0.4931,0.1271,0.305,-9.592,-1.622,1.517,-0.021849,0.05891,-0.935632,-0.8438519591510335,0.3209639059842885,0.40065067844241,-0.1561251932133568
590,14.733491897583008,0.4934,0.139,0.3049,-9.877,-1.924,1.211,-0.148324,0.054051,-0.966271,-0.28719178173402804,-0.5184548351589722,0.4886956580642937,0.6402359082352567
591,14.76102066040039,0.4911,0.1476,0.306,-9.92,-1.731,2.208,-0.392407,0.095031,-0.981164,0.14233471128218778,0.6945310667641068,0.21014620018856722,-0.6732057648371966
592,14.783948183059692,0.4888,0.1633,0.3083,-10.597,-2.344,1.661,-0.518871,0.120572,-0.991163,0.03917184533038359,-0.748733566343404,-0.540268207794963,0.3820652782053331
593,14.828981637954712,0.4852,0.1733,0.3124,-11.066,-1.381,1.297,-0.592171,0.164898,-1.081144,0.5426989286569674,-0.2322268275661647,-0.2340432543723806,-0.7725104067104337
594,14.834233283996582,0.4844,0.1833,0.3141,-11.646,-2.98,1.586,-0.622672,0.187344,-1.084335,0.2757247258528604,-0.5230983883981789,-0.16246634206791516,-0.7899041962818428
595,14.86346697807312,0.4808,0.1941,0.3188,-12.589,-1.87,1.9,-0.44507,0.264833,-1.065351,-0.05387205892962851,-0.9951972121549673,-0.05164435431797948,0.06334959236445503
596,14.889177799224854,0.4788,0.2085,0.3232,-12.842,-2.743,2.725,-0.410907,0.227053,-1.036914,-0.44660980335982625,0.5139652201366863,-0.43102083038710476,-0.5921152588855952
597,14.933028936386108,0.4754,0.2155,0.3294,-14.259,-1.945,1.97,-0.792574,0.208883,-0.912135,0.8092418363912193,0.35751583692977895,0.3887888726674701,0.25720281699181335
598,14.934253215789795,0.4718,0.2227,0.3335,-14.475,1.098,0.851,-0.967187,0.225658,-0.894601,0.4869577881141688,-0.03489941242615624,-0.707786672055591,0.5105802292174431
599,14.96418809890747,0.47,0.2286,0.3398,-12.749,2.215,1.235,-0.919586,0.257263,-0.983737,0.7711985881691528,-0.26070168086610734,-0.5784421624971343,-0.05188483251520465
600,14.997796535491943,0.4671,0.2384,0.3455,-11.692,0.566,1.839,-1.092638,0.228623,-1.106413,-0.24178194386015767,-0.5632611160775025,-0.7852403799201834,-0.08761251326800111
601,15.030829906463623,0.4606,0.2448,0.356,-13.104,-1.876,1.627,-1.180191,0.150016,-1.43751,-0.1672781055305731,0.8346347672024024,-0.20459163350222404,-0.483265045588842
602,15.033717155456543,0.458,0.2545,0.361,-14.544,1.767,2.386,-0.882589,0.196734,-1.593771,0.6362578519084375,0.5439899024399865,-0.3410743771541641,0.42769054370782356
603,15.076533079147339,0.4507,0.2661,0.3645,-11.107,-0.311,2.938,0.06196,-5.3e-05,-1.615531,-0.1900889193588406,0.39124062862177134,-0.8993148525355639,0.04505296063042133
604,15.084920406341553,0.4427,0.284,0.3606,-10.765,-4.79,1.914,0.469249,-0.17475,-1.529357,-0.8338557278001307,-0.35862681445650024,-0.39871779999296664,-0.13074994889660926
605,15.111667156219482,0.4331,0.2967,0.3582,-13.073,-9.114,2.714,0.255966,-0.269684,-1.690449,-0.38064805389547146,-0.5451012124306844,0.4574665061914869,-0.5905049728707984
606,15.134040832519531,0.4246,0.3094,0.3572,-10.036,-5.33,1.274,0.090342,-0.106987,-1.34965,0.22512563659663332,0.254153341615747,0.49888800376111386,-0.7973928055831458
607,15.181117057800293,0.4118,0.3156,0.3558,-8.295,-4.808,0.282,0.074604,-0.055341,-0.975184,0.46460319934622757,0.7876843259942707,0.24346324828214677,-0.32314534883873336
608,15.183862447738647,0.3999,0.3229,0.3563,-7.861,-5.616,-0.14,-0.101256,-0.135844,-0.5323,0.488846608375802,0.8671922689170349,-0.05034244619836443,0.08044998645596405
609,15.22996711730957,0.3887,0.3245,0.3543,-7.109,-6.64,0.886,0.175027,-0.231047,-0.211079,0.3736628367388717,0.8551063100887869,-0.2608595767144887,0.24722775758991292
610,15.234064817428589,0.3826,0.325,0.3594,-6.401,-6.526,0.107,0.357634,-0.162988,0.112232,0.15498690599310672,0.883407880210358,-0.3147475196924241,0.3106502454536174
611,15.270925760269165,0.3777,0.3261,0.3583,-6.208,-6.558,-0.134,0.46534,-0.146619,0.443398,-0.2768637973385685,0.8186503907517437,-0.3996702871400869,0.30564953299922765
612,15.284703254699707,0.3738,0.3258,0.3566,-5.046,-6.165,0.332,0.400544,-0.237795,0.865281,-0.6668840882728312,0.20765640346455724,-0.5916195962561586,0.40265454701813547
613,15.318300485610962,0.3753,0.3225,0.3572,-3.898,-5.285,0.125,0.425082,-0.309321,1.260051,-0.17733837302910552,-0.8377754270529526,-0.2970993134139791,0.4223925108788921
614,15.335737466812134,0.3837,0.3193,0.3561,-3.37,-4.583,0.016,0.623497,-0.349717,1.623722,0.48482879891589176,-0.678709370727004,-0.18830303693880457,-0.5184945439527319
615,15.36062240600586,0.3943,0.3115,0.3532,-3.049,-4.141,-0.054,0.840235,-0.422723,1.911635,0.2793504748269722,-0.8384835932856737,-0.3287730803973841,0.3328916304305431
616,15.400529384613037,0.411,0.3021,0.3489,-3.161,-4.192,0.041,1.017108,-0.442514,2.158293,-0.25705080995053675,0.5547590011173569,0.7096265798153734,-0.3501391851858069
617,15.408641338348389,0.4256,0.29,0.3419,-3.394,-3.942,-0.055,1.088354,-0.342809,2.397748,-0.3741219922670432,0.2629562461039094,0.6411525391863193,-0.6162874078155531
618,15.438859224319458,0.4446,0.2744,0.3387,-4.067,-4.458,0.455,1.1707,-0.22523,2.542391,0.554221065785775,-0.06347262841542214,-0.003319791878892066,0.8299392837209226
619,15.460073471069336,0.4615,0.2574,0.3373,-4.594,-4.854,0.832,1.10076,-0.043449,2.614842,0.438066411477501,0.7539834283930463,0.4317741994336599,0.23060322969836056
620,15.484445810317993,0.4818,0.2347,0.3356,-4.72,-4.875,1.167,0.888693,0.106245,2.587259,0.7010087127248424,-0.6060292769957973,0.1947438404013307,-0.32154336680073414
621,15.521462440490723,0.497,0.213,0.339,-5.476,-4.82,1.282,0.799242,0.214335,2.466108,-0.09538900855298466,-0.2804913685609403,-0.8983097194829411,-0.3244459540394506
622,15.534126281738281,0.5115,0.1905,0.3449,-6.024,-5.575,1.168,0.706219,0.292714,2.227612,-0.38518501555280277,-0.5166186344789124,0.2930653418105042,0.7062934204225771
623,15.56016230583191,0.5242,0.1734,0.3524,-6.958,-6.112,1.412,0.747202,0.318902,1.870182,-0.6974954687392569,-0.07214044704324712,0.7074403085130956,-0.08845358601832282
624,15.593444108963013,0.5369,0.1591,0.3602,-8.214,-7.132,1.9,0.759711,0.286049,1.352882,-0.08918170603304144,-0.051167207499750934,0.8413180432301781,-0.5306717349935436
625,15.617324352264404,0.5459,0.1487,0.3696,-8.734,-6.682,2.305,0.68793,0.246537,0.773144,0.06537234606035038,0.30107222658013605,0.4098432500392007,-0.8585513852705323
626,15.634042024612427,0.5548,0.1482,0.3718,-9.892,-6.902,7.016,0.953176,0.00445,0.028237,-0.3880625669059181,-0.7759651094039426,-0.3607129677586246,0.3423035904644925
627,15.659832000732422,0.5611,0.1618,0.3679,-21.971,-9.335,4.414,0.177194,-1.335259,-1.392497,0.525890578212139,-0.7879777926221309,0.02061627330744198,-0.31953883544409645
628,15.70305347442627,0.5634,0.1881,0.3626,-13.23,-0.367,-7.766,-1.116131,0.761896,-1.588984,-0.15665988507040907,-0.6439485736304101,0.17336724517220575,-0.7285133583061375
629,15.70872950553894,0.5566,0.2016,0.3748,-2.777,4.718,1.524,-0.254159,0.337893,-1.222584,-0.37409399984515124,-0.5880208536572596,0.37760528109783076,-0.6096715563572506
630,15.736110210418701,0.5567,0.2216,0.3733,-5.939,-2.468,5.152,0.915254,-0.50678,-1.550961,-0.28167500754752983,-0.04667971340680261,-0.18464520013006694,-0.9404181753604537
631,15.7641282081604,0.5564,0.2474,0.3693,-11.189,-5.474,-0.031,0.504613,-0.192609,-1.426382,-0.2872064964203295,-0.5776268197244292,-0.20570950693444318,0.7358962456119675
632,15.788921356201172,0.5536,0.2737,0.3638,-10.616,-1.039,1.768,0.209861,-0.040526,-1.236339,0.02377659887106196,0.6028751786268005,0.7881212618784877,0.12182392588029775
633,15.810197830200195,0.5498,0.2913,0.3669,-7.869,-3.331,2.836,-0.06583,-0.077494,-1.061743,-0.5901290301683056,0.3981025475651594,0.5326779299839557,0.45772951869281137
634,15.835373163223267,0.5499,0.306,0.3674,-9.295,-5.985,0.935,0.016625,0.101706,-0.859971,-0.5325566900725378,0.013519192749164605,0.5026937082355056,0.6808080779388788
635,15.86033320426941,0.5452,0.3184,0.3712,-9.257,-3.91,3.529,0.017456,0.230481,-0.625483,-0.7722663474087363,0.61842121079799,0.061533567710349985,-0.13180862923175002
636,15.899881839752197,0.5421,0.3276,0.3737,-9.521,-5.208,1.752,0.087098,0.30725,-0.371394,0.16821102981514438,0.42581693389761793,0.881492859406126,-0.11556525027261541
637,15.90883755683899,0.5395,0.3313,0.3783,-9.073,-4.541,2.039,0.082872,0.31747,-0.13588,-0.05316986692872283,-0.39242268552215887,0.6777458350249234,0.6195465957010242
638,15.934112310409546,0.539,0.3316,0.3823,-8.969,-4.593,1.559,-0.014878,0.242769,0.076665,-0.616249624660783,-0.4131364059432473,0.23704708221818743,0.6271868868220891
639,15.960545063018799,0.5382,0.3296,0.3864,-9.025,-2.834,0.997,-0.070284,0.201907,0.241226,-0.8239074673669325,-0.20061118050700205,0.21411862741885837,0.4848554968904219
640,15.98422122001648,0.5395,0.3267,0.3869,-8.985,-3.026,0.933,0.099373,-0.030636,0.26216,-0.7223554866368473,-0.19602767627153944,0.4616331593187455,0.47609928300578
641,16.008720636367798,0.54,0.3229,0.3863,-8.952,-3.717,1.633,0.039204,-0.12567,0.34399,-0.47093300845257247,-0.07085556728962739,0.8078930816235037,0.3471460194194271
642,16.0335910320282,0.5431,0.3167,0.3814,-9.567,-4.234,1.481,-0.118417,-0.113337,0.472271,-0.5529062356848129,0.24234067638614676,0.7853474411793374,0.13709517767821783
643,16.060431718826294,0.5441,0.3058,0.3811,-9.241,-3.779,1.693,-0.265448,-0.136226,0.608823,-0.5970816259791136,0.2584229415227761,0.6556906055136631,0.383120013904233
644,16.08479642868042,0.5469,0.2966,0.3802,-9.154,-3.352,1.452,-0.274653,-0.159677,0.706725,-0.27952860026084525,0.6542057141061283,0.6713988655296833,0.20761071415646565
645,16.132989645004272,0.5494,0.2845,0.3814,-9.44,-3.224,1.65,-0.3171,-0.185194,0.783379,-0.7608578397174454,0.333113653664399,-0.22905147002350476,0.5076081811426295
646,16.133854627609253,0.5543,0.2696,0.3784,-8.849,-3.125,2.12,-0.355865,-0.186028,0.849374,0.5791830114364712,0.21232092132601482,0.711091444610407,0.33736600752378265
647,16.159579753875732,0.5566,0.2541,0.3788,-9.448,-2.246,2.328,-0.348156,-0.121136,0.911564,-0.7065975229453177,0.0115882319030573,-0.7075193376926883,-0.001428369630746551
648,16.195940256118774,0.5589,0.2377,0.3727,-9.559,-1.306,2.22,-0.325941,-0.022373,0.878304,0.5351279640069748,-0.17099746222979675,0.7471332522171352,-0.35523208396788386
649,16.215477228164673,0.5599,0.2252,0.3764,-9.24,-0.731,2.174,-0.374271,0.026337,0.791729,-0.8111963960972918,-0.4485682283325353,-0.1561226575839409,-0.34113438301980586
650,16.23532223701477,0.5606,0.2105,0.3768,-9.034,-0.654,2.216,-0.36025,0.019632,0.697426,-0.2676878571027209,-0.3598023261940391,0.8356499264595706,-0.3171351409623754
651,16.26330041885376,0.5616,0.1994,0.3775,-9.164,-0.503,2.071,-0.392554,0.010532,0.585406,-0.765372970443275,-0.13204765409924196,0.5915789660522696,-0.21633760673135943
652,16.28948998451233,0.5605,0.1899,0.3771,-9.109,0.009,1.827,-0.401704,-0.019321,0.433527,-0.7128258673344561,0.09343591265834045,0.6950388109212211,0.008370447885167831
653,16.31591486930847,0.5612,0.1823,0.3776,-9.263,0.293,1.675,-0.38104,-0.028614,0.249829,-0.7706318197394342,0.22199663700186004,0.5358237136230719,0.26407771485707177
654,16.33511233329773,0.5617,0.1788,0.3778,-9.594,0.154,2.103,-0.263887,-0.031051,0.040476,-0.6812418222146389,0.28732008048111907,0.4765391061582445,0.47567555257749244
655,16.360004425048828,0.5617,0.1785,0.377,-9.578,0.883,2.365,-0.239014,0.015325,-0.19827,-0.6104841619577215,0.4778745763365514,0.39679374455129435,0.491426191380661
656,16.39286780357361,0.5612,0.1818,0.3797,-9.757,1.262,2.248,-0.102335,0.00927,-0.450785,-0.4517430761422869,0.5520274537433856,0.46303364726031276,0.5261118939692492
657,16.4220974445343,0.5617,0.1896,0.3814,-9.823,-0.565,2.127,0.015337,0.044294,-0.618994,-0.4364146641307983,0.6575403768825322,0.48704483508396335,0.3741259444609728
658,16.43466854095459,0.5613,0.1996,0.3826,-9.636,-1.553,2.13,-0.062705,0.085953,-0.673541,-0.5337618788284086,0.15500435035105076,0.33448039573701127,0.761048469513886
659,16.460790395736694,0.5592,0.2061,0.3843,-9.53,-1.714,1.968,-0.073333,0.107001,-0.670388,-0.15020992360976498,0.8104562364947147,0.5632666971668705,-0.05769138097408287
660,16.491520881652832,0.5569,0.2178,0.3873,-9.955,-2.847,1.707,-0.195775,0.140558,-0.584989,-0.4057444065413984,-0.29185247943092457,0.08901164972787523,0.8615512364468594
661,16.519776582717896,0.5569,0.2226,0.3922,-9.679,-2.537,1.943,-0.424986,0.178652,-0.503798,-0.19329947426767952,0.8700378733523803,0.052003645114354846,-0.4505164071098038
662,16.534286737442017,0.5538,0.2277,0.3928,-10.117,-2.038,1.608,-0.600323,0.188801,-0.482115,0.34429000510967506,-0.48547035216887635,0.3870703336189646,0.7042439111406718
663,16.563676834106445,0.5525,0.229,0.4001,-10.186,-1.633,2.463,-0.519518,0.247007,-0.515681,-0.5528581962197726,0.4159688304615662,-0.5421656950082276,-0.47683760979321
664,16.585423707962036,0.5493,0.2352,0.4052,-10.947,-1.044,3.02,-0.535581,0.298203,-0.551082,0.5212324047949837,-0.47718019748234397,0.6908145659255733,0.15294140978626913
665,16.611917972564697,0.5462,0.2414,0.4109,-13.146,-0.327,1.951,-0.491823,0.277414,-0.689025,-0.8202103473075466,-0.03747199540126142,-0.29001304581171367,-0.49167394581093515
666,16.64594554901123,0.5439,0.2438,0.4163,-14.559,-0.417,0.884,-0.608647,0.255557,-0.811616,-0.1406093247396792,-0.3483723623641774,0.9119186949801719,-0.16513633362380914
667,16.659762620925903,0.5394,0.2486,0.4234,-14.84,1.671,1.107,-0.703159,0.317985,-0.912776,-0.7629079742090291,-0.021916689742696664,0.644672923094724,-0.043450015276199495
668,16.696085453033447,0.5368,0.2572,0.4312,-14.143,2.089,1.297,-0.729232,0.26677,-1.094286,-0.9297027444883881,0.22087399757866746,0.20273809712011512,0.21392696898823377
669,16.70872139930725,0.5324,0.262,0.438,-13.496,1.753,0.927,-0.825312,0.215359,-1.2322,0.46489363085735746,0.49488689791483786,0.7019608856562766,-0.21496926587107196
670,16.747281789779663,0.5282,0.269,0.4429,-14.706,-0.318,2.705,-0.498674,0.146017,-1.4908,0.1386814467103059,-0.9760586040848185,-0.10510589250615714,0.1304983106818484
671,16.75825023651123,0.5215,0.2801,0.447,-12.962,0.728,3.436,0.250992,0.13184,-1.639876,0.33211205018246737,-0.646639162807057,-0.05950508500098245,-0.6841187938558717
672,16.784532070159912,0.5156,0.3023,0.4453,-13.372,-6.079,3.628,0.373348,-0.136903,-1.804368,0.7062891853792496,-0.3156716393035452,0.6100364674377737,0.1713549274219169
673,16.809277534484863,0.507,0.3161,0.4448,-14.123,-13.334,4.347,-1.154227,-0.170449,-1.992043,-0.09983583126504658,0.3978630937350058,0.33248900070290316,0.8492283732017036
674,16.846158266067505,0.4958,0.3247,0.4518,-14.445,-6.448,2.293,-2.368533,0.08274,-1.949952,0.8993830287585379,0.308584617074344,0.30962713134310027,0.004091603896009821
675,16.86275339126587,0.4804,0.3273,0.4617,-10.843,-3.714,0.864,-1.996592,0.32273,-1.955376,-0.5418119759097597,0.10301944812300806,0.023960179623012372,0.8338181371627903
676,16.883952379226685,0.4645,0.3345,0.4737,-8.521,-4.988,-0.581,-1.280559,0.235213,-1.768595,0.6054951055885269,0.235089630682888,0.0547384079228887,0.7583615558239944
677,16.908717155456543,0.4491,0.3415,0.4783,-6.561,-4.483,-1.359,-0.723028,0.35382,-1.48325,-0.3741792380494808,-0.7173426455221734,-0.09413203885755991,0.5801280772281912
678,16.93345832824707,0.4379,0.3509,0.4801,-5.484,-3.355,-1.426,0.027019,0.241228,-1.132879,-0.8344673990975534,-0.39270846498592155,0.3863726133780081,-0.01266589922642658
679,16.958372592926025,0.4283,0.3601,0.4739,-3.97,-3.604,-1.41,0.699913,0.028084,-0.805817,-0.43824547316042695,-0.26775491739127955,0.6647539558800158,-0.5425406782989202
680,16.98498249053955,0.424,0.3727,0.4616,-3.08,-3.341,-0.904,1.240337,-0.184118,-0.330582,-0.2635977592535276,-0.14820952747078814,0.024255514266540285,-0.9528703098066761
681,17.00891923904419,0.4235,0.3798,0.4466,-2.383,-3.545,-0.112,1.477102,-0.28279,0.228503,-0.044061581260620764,-0.5062729838020035,-0.7748591289147508,-0.3759515570741844
682,17.033766269683838,0.431,0.3832,0.4262,-1.759,-2.411,0.54,1.53019,-0.347439,0.833832,0.730063086623722,-0.06380888500022891,-0.6450704334237822,0.21638034029672107
683,17.061111450195312,0.4409,0.3796,0.4092,-1.65,-1.302,0.023,1.36571,-0.352441,1.31146,-0.013483054234636777,0.30482495073047877,-0.6485238427254165,0.6973641674744454
684,17.083810091018677,0.4553,0.3676,0.3906,-2.008,-1.77,-0.044,1.506444,-0.30958,1.772966,0.6017983249868109,-0.4661493684214388,0.557607877762053,0.3310845768396077
685,17.125375747680664,0.4717,0.352,0.3742,-2.392,-3.227,0.4,1.424294,-0.163414,2.315321,0.6674141549700373,-0.2046452595016427,-0.6726056828851555,-0.24552038379680408
686,17.139848709106445,0.4913,0.3288,0.3628,-3.046,-2.785,1.165,0.884553,-0.05007,2.746345,0.3551713376140106,0.45227035259419424,0.6185459932350266,-0.5354490670032886
687,17.16118621826172,0.5073,0.2969,0.3588,-3.764,-2.206,0.427,0.732983,-0.052451,2.893145,-0.09503576156987985,-0.27060007488389487,0.8489389603521356,-0.4438991384221179
688,17.185354232788086,0.5275,0.2599,0.3492,-5.568,-3.455,0.689,1.197362,-0.029008,2.947993,-0.09178046350715323,0.2931825090288045,-0.5360116263649611,0.78632811174444
689,17.21211314201355,0.542,0.2275,0.3439,-7.115,-5.794,1.566,1.292523,0.098795,2.932977,0.3983201901697502,-0.366217839540515,0.5095695727588295,0.6690025191460759
690,17.23494863510132,0.5541,0.1907,0.3393,-8.418,-7.19,2.367,0.982912,0.197524,2.703158,0.5880026437042525,-0.3955123979567994,-0.5869728155996643,-0.391517238198109
691,17.260388374328613,0.5605,0.162,0.3358,-9.25,-8.075,2.384,0.818677,0.200294,2.129095,-0.20527544945999088,0.6285884596912439,-0.3780024166730589,-0.6479604240856962
692,17.284361124038696,0.5669,0.1363,0.3346,-8.946,-8.848,2.625,0.899883,0.151588,1.392245,-0.5988906273838581,0.25410592781193203,0.36559720957073294,-0.6656567240227501
693,17.312307834625244,0.5687,0.1228,0.3323,-7.721,-8.669,2.349,0.710658,0.129495,0.75146,-0.28376925068344483,-0.5484546400721722,0.549071680615204,-0.5631987301976591
694,17.3342764377594,0.5689,0.1163,0.3295,-6.865,-7.603,2.337,0.47203,0.011954,0.175574,-0.18287866928080374,-0.6889870857598462,0.19360045320388114,-0.6740705100339938
695,17.35872769355774,0.571,0.1199,0.3239,-17.159,-13.016,7.973,0.660453,-0.607911,-1.03728,0.1872109951990744,-0.43256737971329856,-0.03361637071846596,-0.8813100730754538
696,17.38453722000122,0.5722,0.1362,0.3144,-16.001,-1.575,-10.137,-1.010169,0.928256,-1.111461,-0.44813581507428046,0.13456958645166672,-0.3316871674322601,-0.8191757690573502
697,17.411275386810303,0.5649,0.1496,0.325,-2.368,1.81,9.894,0.162238,-0.132897,-1.066876,-0.6694443436805882,0.09188127692880932,-0.6017682903938812,-0.4257663987921347
698,17.449748277664185,0.5648,0.167,0.3187,-8.299,-4.632,-0.133,0.387355,-0.1231,-1.090579,0.5671724146082676,0.36614473571140355,0.6964509816943748,0.24333005304564287
699,17.458614110946655,0.5622,0.1814,0.3174,-10.427,-4.424,0.841,0.238177,-0.01134,-0.894569,-0.5499515168506208,0.2836516708496877,0.004667126366048324,0.785540117797535
700,17.492517232894897,0.5592,0.1944,0.3148,-8.781,-1.851,3.509,-0.027111,-0.067829,-0.747036,-0.40303995326842385,0.6410951684635016,0.36331971209464237,0.5427288161187016
701,17.510185956954956,0.5579,0.2042,0.3165,-9.133,-5.42,1.94,0.003536,0.04692,-0.523667,-0.5478535376171145,0.4732909996462723,0.21660226000187138,0.6549317460135269
