,time,magX,magY,magZ,linear_accX,linear_accY,linear_accZ,angular_velX,angular_velY,angular_velZ,orientationX,orientationY,orientationZ,orientationW
0,0.0,0.498,0.0737,0.3024,-9.458,-0.163,1.914,-0.031768,0.019107,-0.023048,-0.2800595310384953,-0.742359630098426,0.30781926526151127,-0.5250867915006904
1,0.013441324234008789,0.5004,0.0745,0.3019,-9.464,-0.191,1.711,-0.003281,0.009596,-0.036142,-0.308400009099848,-0.7337182329740333,0.2912268366148222,-0.5307861326598499
2,0.05265545845031738,0.498,0.0761,0.3029,-9.564,-0.223,1.867,0.054461,0.000809,-0.044048,-0.3141849211676145,-0.734440142536987,0.25076986994436445,-0.5468089105613008
3,0.062283992767333984,0.5009,0.0745,0.3016,-9.513,-0.316,1.983,0.056795,0.000356,-0.043534,-0.407139742453797,0.6845641878484983,0.33851364720224775,0.5010165800528101
4,0.08917617797851562,0.4999,0.0761,0.3013,-9.514,-0.306,1.886,0.062598,0.004612,-0.044306,-0.41010004302492997,0.6701348450768609,0.3891476095962839,0.4809380231071988
5,0.11722302436828613,0.4999,0.0775,0.3011,-9.496,-0.43,2.01,0.060694,0.005229,-0.044179,-0.4165253195650303,0.6459630609201872,0.44087751432406064,0.4635357585465328
6,0.14972352981567383,0.4991,0.0789,0.3014,-9.522,-0.431,1.939,0.031153,0.00797,-0.030943,-0.4189551363526526,0.6229454174817871,0.47689645884910115,0.4571491748864478
7,0.16294312477111816,0.5004,0.0786,0.3016,-9.498,-0.374,1.923,0.031454,0.009311,-0.027446,-0.42145961277966226,0.6015990564699254,0.5004710095067422,0.45823480737872235
8,0.20280981063842773,0.4988,0.078,0.3024,-9.522,-0.362,1.835,0.02913,0.007225,-0.020155,-0.42636246699367497,0.5817603779593142,0.5188870698323597,0.4588312523537288
9,0.2141551971435547,0.5007,0.0789,0.3011,-9.504,-0.362,1.907,0.050347,0.003769,-0.020606,-0.4401931728005782,0.5573732643016733,0.5404584835810344,0.45107609378767355
10,0.2379012107849121,0.4986,0.0799,0.3008,-9.533,-0.45,1.956,0.045582,0.004279,-0.014833,-0.456796517308157,0.5325885543728408,0.5613884532020023,0.4387816975873649
11,0.26476621627807617,0.5002,0.0797,0.3006,-9.511,-0.504,1.986,0.021025,0.009123,-0.001601,-0.47113976242251526,0.5153858056250581,0.5720872452039112,0.4302568761794118
12,0.3140864372253418,0.4989,0.0802,0.3019,-9.57,-0.36,1.977,0.014859,0.013018,0.006155,-0.48175811943730534,0.5071599614618906,0.5704462721822765,0.43045201637296204
13,0.31409239768981934,0.4999,0.0791,0.3008,-9.509,-0.388,1.934,0.005814,0.015541,0.004473,-0.4942868778844872,0.49788139760747635,0.5690754544698196,0.42889127222129436
14,0.3525044918060303,0.5001,0.0802,0.3035,-9.495,-0.339,1.946,-0.00313,0.015044,0.00725,-0.5022833977955402,0.4934068854855027,0.5619546524642337,0.4341290156488799
15,0.3638002872467041,0.4999,0.0791,0.3027,-9.51,-0.385,1.942,-0.004729,0.013605,0.009883,-0.5081500062542813,0.4902099382899084,0.5544232437367049,0.4405594787881068
16,0.38889098167419434,0.4991,0.0794,0.3022,-9.505,-0.359,1.968,-0.007604,0.014203,0.0144,-0.5133142058206592,0.4876940058490996,0.5455938401837063,0.44831957833130676
17,0.4140498638153076,0.5001,0.0783,0.3038,-9.537,-0.325,1.944,-0.020654,0.017357,0.012511,-0.5143937446902356,0.48763796066937815,0.5336082577657324,0.46137893534705987
18,0.46070003509521484,0.4986,0.0786,0.3043,-9.511,-0.306,1.877,-0.015564,0.016718,0.008533,-0.5147897390648066,0.4861291581882925,0.5219812582677912,0.47561069387672933
19,0.4634263515472412,0.4991,0.0794,0.3027,-9.508,-0.329,1.95,-0.018434,0.015855,0.010711,-0.5138506314495179,0.48493028154923207,0.5103617429050139,0.4902357004283455
20,0.4929516315460205,0.4983,0.0794,0.3051,-9.527,-0.337,1.84,-0.015287,0.015027,0.008968,-0.5129325792704282,0.4828733094310668,0.4998531933570944,0.5038653800895537
21,0.5174140930175781,0.5001,0.0789,0.3019,-9.537,-0.32,1.905,0.002445,0.014055,0.009132,-0.5151229821804061,0.47706157863446713,0.49442812110033246,0.5124464815817846
22,0.5429174900054932,0.4986,0.0772,0.3065,-9.505,-0.308,1.876,-0.003786,0.012443,0.005436,-0.5183718787572643,0.47031440421315973,0.49133046110692696,0.5183525195190424
23,0.5646252632141113,0.5009,0.0775,0.3049,-9.532,-0.336,1.87,-0.003605,0.009991,0.00515,-0.5201506462281267,0.465114898225645,0.4876727569268865,0.524677728542331
24,0.6004846096038818,0.4981,0.0794,0.3049,-9.528,-0.336,1.833,-0.010208,0.006697,0.008653,-0.5187733185950059,0.4628682326204138,0.48217840732960293,0.5330396107700313
25,0.6162054538726807,0.5001,0.0772,0.3046,-9.517,-0.392,1.89,-0.004423,0.009105,0.007505,-0.5176568052091327,0.4592142297544918,0.47779242923403414,0.5411729093167019
26,0.6383252143859863,0.498,0.078,0.3035,-9.525,-0.33,1.9,-0.011993,0.009488,0.010818,-0.5145748270271199,0.4565168359794436,0.4733050874759957,0.550261228896483
27,0.6641786098480225,0.5009,0.0775,0.3043,-9.555,-0.298,1.86,-0.017232,0.010062,0.011399,-0.5094212279997659,0.4550013281310499,0.466646678455343,0.5618760373505771
28,0.7076032161712646,0.4996,0.078,0.3059,-9.565,-0.307,1.833,-0.007117,0.005808,0.008517,-0.5046111322593514,0.45348044547176647,0.4622014114287699,0.5710454850954665
29,0.713670015335083,0.5009,0.0772,0.3068,-9.522,-0.387,1.902,-0.006392,0.003788,0.013472,-0.5006372613305919,0.4508284404898346,0.4610710711522687,0.577520144375422
30,0.7394521236419678,0.4988,0.0775,0.3038,-9.553,-0.371,1.895,-0.016203,0.007059,0.016121,-0.49250420229147585,0.44978664278691505,0.458269690009146,0.5874695548831739
31,0.7665460109710693,0.4999,0.0769,0.3054,-9.535,-0.312,1.857,-0.020042,0.008041,0.016609,-0.4811094635892956,0.44951479512889053,0.4548405781770039,0.5996583872911815
32,0.7893650531768799,0.4993,0.0775,0.3051,-9.567,-0.338,1.948,-0.016772,0.008572,0.01546,-0.47004883192067026,0.44807157668935815,0.45294331547632255,0.6108422961276034
33,0.814424991607666,0.5001,0.0745,0.3048,-9.539,-0.326,1.96,-0.040222,0.010566,0.017288,-0.4532118587679801,0.45159847550124,0.44539552977967056,0.6263231195232337
34,0.839735746383667,0.4983,0.0753,0.3051,-9.49,-0.188,1.804,-0.032787,0.008379,0.010542,-0.43351826113949765,0.4573612847982906,0.43244839192915674,0.6448805786687405
35,0.8646314144134521,0.4991,0.075,0.3056,-9.517,-0.336,1.863,-0.021238,0.006402,0.007356,-0.4236737239657133,0.4587767669299915,0.42373187307075677,0.6561065107817762
36,0.8890926837921143,0.4988,0.0745,0.3056,-9.515,-0.312,1.921,-0.022756,0.006638,0.006069,-0.414904918124685,0.4603832595371166,0.4149655421489319,0.6661116738828193
37,0.9132065773010254,0.4993,0.0742,0.3067,-9.557,-0.303,1.844,-0.020061,0.003137,0.005717,-0.40688703417469113,0.4617976056078379,0.40885768783075904,0.6738110298719344
38,0.9388699531555176,0.4996,0.0759,0.3046,-9.552,-0.305,1.861,-0.00725,0.005467,0.005127,-0.4016597937084647,0.4611117469265877,0.4043523966438807,0.6801062463268028
39,0.9733352661132812,0.5004,0.0742,0.3056,-9.492,-0.316,1.885,-0.006114,0.007205,0.003018,-0.3986019750164305,0.4574013702295229,0.40378480778546094,0.6847322695965296
40,0.9998338222503662,0.4983,0.0764,0.3056,-9.516,-0.295,1.919,-0.010507,0.010941,0.00142,-0.3957026409313509,0.4534331888839794,0.39875471677551005,0.6919627439593428
41,1.0165281295776367,0.4986,0.075,0.3046,-9.519,-0.186,1.791,-0.0034,0.00938,-0.00623,-0.3956025863442836,0.44904238500721694,0.3907940831967962,0.6993850975557883
42,1.0392429828643799,0.4988,0.0753,0.3062,-9.558,-0.261,1.733,0.022702,0.000801,-0.016124,-0.4128584871235965,0.44076826717424566,0.38588962984523756,0.6973954386430508
43,1.0652706623077393,0.5001,0.0748,0.3059,-9.517,-0.327,1.776,0.017721,-0.003423,-0.015746,-0.4353766349923284,0.43551801437179427,0.3825279151059564,0.6887986926708678
44,1.0951423645019531,0.4993,0.0753,0.3059,-9.534,-0.41,1.764,0.028525,-0.01056,-0.009429,-0.45716079111454044,0.43364792143192826,0.3843905909421748,0.6746831588978794
45,1.1159167289733887,0.5001,0.0753,0.3067,-9.534,-0.555,1.872,-0.009448,-0.010809,0.009456,-0.46101043237155065,0.4356041668097576,0.3898111561060962,0.6676568382618436
46,1.1449601650238037,0.498,0.0775,0.3062,-9.55,-0.342,1.762,-0.03056,-0.011069,0.023923,-0.4391136531194794,0.44598728623701245,0.39032525354082587,0.6752190286176039
47,1.1633403301239014,0.4993,0.075,0.3056,-9.49,-0.392,1.767,-0.022137,-0.022425,0.025552,-0.41441626545051424,0.45992983315686947,0.3949524041096645,0.6787755932488582
48,1.2006018161773682,0.4985,0.0756,0.3073,-9.506,-0.417,1.841,-0.039756,-0.030352,0.033232,-0.38575298092838034,0.48363573456535247,0.39999184870168014,0.6762378538121869
49,1.2130353450775146,0.4996,0.0731,0.3062,-9.51,-0.387,1.919,-0.07109,-0.033293,0.042697,-0.3457357439537136,0.519595363180406,0.38959507639403423,0.6772762585265488
50,1.2461233139038086,0.4985,0.0731,0.3043,-9.535,-0.312,1.924,-0.082951,-0.0336,0.045587,-0.2718121344545641,-0.5776368230561386,0.3283301155546284,-0.6961703810366753
51,1.2768545150756836,0.5009,0.0718,0.3062,-9.622,-0.251,1.892,-0.069828,-0.028287,0.048188,-0.32472592366339037,-0.5714236376410015,0.3463644534746993,-0.6693726661697923
52,1.2921769618988037,0.4998,0.0723,0.3043,-9.583,-0.214,1.957,-0.081461,-0.020387,0.041099,-0.37115822356316786,-0.5620156001169571,0.3714989744153144,-0.6390372057360822
53,1.3148434162139893,0.5004,0.0699,0.3021,-9.538,-0.069,1.965,-0.055474,-0.016977,0.022276,-0.40599878445683446,-0.5511870923589469,0.39796870475798063,-0.6107198099535645
54,1.352837324142456,0.4988,0.0707,0.3056,-9.55,-0.134,2.084,-0.030385,-0.007568,0.006472,-0.42138567195037996,-0.5458574922287283,0.4133290835672224,-0.5946703139809237
55,1.3656020164489746,0.4996,0.0691,0.3029,-9.521,-0.258,2.067,-0.028448,0.005519,-0.003985,-0.4313037124402279,-0.5367225831218928,0.42546081085012794,-0.5872725728594785
56,1.3877723217010498,0.4985,0.0696,0.3023,-9.477,-0.29,2.047,-0.023725,0.015748,-0.004106,-0.43905903096376525,-0.5223925496861455,0.43522033956520406,-0.587295877212088
57,1.4239988327026367,0.5004,0.0696,0.3048,-9.445,-0.263,1.924,-0.01329,0.021036,-0.001957,-0.44393588010692103,-0.5062468903436954,0.44233473755705544,-0.592431430902651
58,1.4372780323028564,0.4988,0.0707,0.3032,-9.565,-0.337,1.942,0.001469,0.022064,0.002919,-0.4438496777067134,-0.49271203007938613,0.44356585452469394,-0.6028943951592807
59,1.4650089740753174,0.4996,0.0707,0.3048,-9.546,-0.406,1.933,-0.013208,0.031639,0.017519,-0.4483349850499575,-0.4760525154177432,0.4407493784484634,-0.6149062767137663
60,1.4881632328033447,0.4993,0.0691,0.3069,-9.548,-0.266,1.805,-0.034698,0.038125,0.024443,-0.4676402549908396,-0.4464914404427585,0.44133448930287256,-0.6222393864705333
61,1.5147907733917236,0.4988,0.0696,0.3061,-9.595,-0.217,1.86,-0.015322,0.033958,0.016618,-0.48715919987330736,-0.4197525023911781,0.4357480672135684,-0.6297677132362238
62,1.5516345500946045,0.4983,0.0693,0.3056,-9.566,-0.256,1.879,-0.025161,0.03382,0.01193,-0.5051525013349768,-0.39606227566928726,0.42775356647401475,-0.6363823619141579
63,1.5692334175109863,0.4985,0.069,0.3085,-9.518,-0.189,1.78,-0.023821,0.028179,0.00822,-0.5218329175949791,-0.370269582508576,0.42609902783737563,-0.6395548927647103
64,1.5889747142791748,0.4982,0.0674,0.3069,-9.538,-0.285,1.739,-0.014238,0.019226,0.003021,-0.5293170405961147,-0.35051295646222014,0.4263382433322268,-0.6443600237127347
65,1.613250494003296,0.498,0.0682,0.3056,-9.579,-0.337,1.788,-0.032221,0.009981,0.011434,-0.5418000529094626,-0.33453916972634146,0.42804082374003904,-0.6413402371581425
66,1.6469166278839111,0.498,0.0666,0.3072,-9.518,-0.39,1.777,-0.051339,0.001731,0.032305,-0.5737792500862575,-0.3238211432361279,0.4244117792712945,-0.62112147039003
67,1.6637918949127197,0.498,0.0672,0.3064,-9.59,-0.347,1.814,-0.056152,0.006557,0.044938,-0.6236486370720556,-0.3177458670181299,0.4126484683827994,-0.5829418350164912
68,1.6887400150299072,0.4969,0.0669,0.3082,-9.587,-0.157,1.914,-0.053379,0.012616,0.045297,-0.6759800497839907,-0.32194471611840436,0.395921587774688,-0.5316471276997965
69,1.7155427932739258,0.4972,0.0633,0.3085,-9.529,-0.067,1.897,-0.035019,0.019414,0.02309,-0.7121202335384784,-0.3269941788704153,0.38239520887247924,-0.48962586145069853
70,1.7593669891357422,0.4972,0.0642,0.3066,-9.524,-0.038,1.947,-0.031101,0.025204,-0.000266,-0.7321428525792946,-0.30949966650634897,0.37686232236092276,-0.47555398204015087
71,1.7633137702941895,0.4972,0.065,0.3088,-9.573,-0.144,1.877,-0.031627,0.024648,-0.023743,-0.7357927045104155,-0.26548569624136764,0.38218038641372226,-0.49200060296827147
72,1.7884042263031006,0.4969,0.0642,0.3082,-9.559,-0.192,1.805,-0.02693,0.022011,-0.034758,-0.7171069101586268,-0.20481348871818247,0.40963201491804657,-0.5253672302266438
73,1.8163163661956787,0.4985,0.0658,0.309,-9.535,-0.307,1.74,-0.027011,0.020265,-0.035496,-0.6765726659758019,-0.14806954992653945,0.4565949188047186,-0.5584316575559274
74,1.8385069370269775,0.4964,0.0674,0.3112,-9.544,-0.361,1.761,-0.022862,0.016963,-0.032232,-0.621454070318586,-0.10689134862414629,0.515594786787586,-0.5801130009844951
75,1.8759357929229736,0.498,0.0658,0.3099,-9.564,-0.355,1.787,-0.008502,0.010163,-0.022232,0.27199530994729204,0.512037633295524,0.13254462483013502,0.803907915052734
76,1.8883216381072998,0.4977,0.0655,0.3098,-9.544,-0.413,1.77,-0.021302,0.010671,-0.008091,0.26176417582589107,0.48147778912046624,0.11162121058732499,0.828974885135177
77,1.9133632183074951,0.4974,0.0661,0.3088,-9.501,-0.38,1.724,-0.033963,0.012445,0.001148,0.26911366219029664,0.4622780363030836,0.09214686779956852,0.8398724955188261
78,1.939229965209961,0.4948,0.0663,0.3096,-9.544,-0.304,1.733,-0.033283,0.010193,0.00354,0.28415211029488247,0.44901485476455794,0.07609471092117598,0.8437137153001311
79,1.9781758785247803,0.4964,0.0642,0.3079,-9.541,-0.198,1.83,-0.031563,0.005475,-0.009366,0.2885432408081947,0.43109736602270576,0.05273068719249899,0.8532979162170715
80,1.9954643249511719,0.4961,0.0655,0.309,-9.542,-0.283,1.82,-0.033895,0.00532,-0.013685,0.27857509721913887,0.40834310572259136,0.019531089732842788,0.8690629204793077
81,2.013503313064575,0.4972,0.065,0.3106,-9.554,-0.287,1.811,-0.033438,0.005028,-0.016904,0.2593251654381225,0.38220125644073955,-0.02847885456912995,0.8864883603229321
82,2.047293186187744,0.4954,0.0658,0.3093,-9.487,-0.272,1.868,-0.027732,0.006388,-0.019789,0.22725396779587012,0.35732577180379693,-0.08631729777687691,0.9017889171143947
83,2.0638022422790527,0.4982,0.0644,0.309,-9.554,-0.32,1.77,-0.013862,0.001075,-0.01889,0.18851840113327156,0.34471601241478045,-0.13971047166553835,0.9089074030537988
84,2.1056079864501953,0.4966,0.0652,0.3101,-9.547,-0.332,1.758,-0.006825,0.001629,-0.017055,0.15143595514562735,0.34109136445634086,-0.18143966631701935,0.909837062373924
85,2.113158941268921,0.4969,0.0663,0.3101,-9.564,-0.313,1.828,-0.001837,0.003519,-0.013157,0.11514242274858874,0.34248665109487253,-0.2179169199797851,0.906618625603913
86,2.1393983364105225,0.4964,0.0671,0.3085,-9.57,-0.31,1.843,-0.007029,0.004524,-0.016189,0.07985841247937842,0.3478925616525806,-0.25517547388289985,0.8985982845697605
87,2.1668877601623535,0.4985,0.0644,0.3096,-9.561,-0.338,1.828,-0.006201,0.007738,-0.015205,0.04431847616078474,0.35656978564944153,-0.2936139621999186,0.8858243064140666
88,2.201380491256714,0.4959,0.0652,0.309,-9.583,-0.365,1.802,-0.00194,0.008662,-0.015762,0.011448415447109367,0.36684481417154946,-0.32717971585663613,0.8707739371565748
89,2.2133688926696777,0.4972,0.0655,0.3107,-9.594,-0.371,1.823,-0.006066,0.011108,-0.011076,-0.020309183825021365,0.3787540473906574,-0.3580471390473794,0.8531911596222407
90,2.2531540393829346,0.4959,0.0688,0.3091,-9.546,-0.321,1.767,-0.006411,0.014991,-0.009391,-0.04595878371714915,0.38777855798901734,-0.38542013997831615,0.8360424007562619
91,2.263767957687378,0.4977,0.0688,0.3096,-9.544,-0.312,1.753,0.002522,0.014782,-0.012307,-0.07382154939463387,0.4005111731212132,-0.40882936285045823,0.8167005149510643
92,2.287583827972412,0.4961,0.066,0.312,-9.518,-0.336,1.771,0.008109,0.015175,-0.016306,-0.10614301870766518,0.4206012725090218,-0.43062102516433176,0.7914504165327326
93,2.315737724304199,0.4954,0.0677,0.3104,-9.556,-0.305,1.81,0.013492,0.012759,-0.013356,-0.1377457564501565,0.4457051447521544,-0.44828189850113626,0.7625066360351577
94,2.3506343364715576,0.4956,0.069,0.3104,-9.583,-0.28,1.788,0.016053,0.010616,-0.015445,-0.167625672146428,0.476296961645442,-0.4603972976038751,0.7301213369870978
95,2.3641092777252197,0.4982,0.0685,0.3104,-9.54,-0.381,1.763,0.020119,0.011874,-0.018818,-0.19562587064490264,0.5091965828119783,-0.46710182550261636,0.6958916894166441
96,2.389040946960449,0.4961,0.0687,0.312,-9.535,-0.375,1.78,0.009983,0.013989,-0.013557,-0.21797487237432028,0.5455003436361481,-0.47412600607110517,0.6558360012025151
97,2.413601875305176,0.4964,0.0688,0.3096,-9.564,-0.38,1.739,0.004899,0.012464,-0.013851,-0.23360855175074963,0.5806417020016486,-0.47924840090170895,0.615307426152733
98,2.4534502029418945,0.4959,0.0693,0.3091,-9.557,-0.388,1.733,-0.000133,0.011927,-0.015686,-0.24146561382323356,0.61974236596377,-0.48268428408610176,0.5697627919291369
99,2.46384334564209,0.4974,0.0682,0.3107,-9.523,-0.401,1.745,-0.005713,0.007811,-0.009237,-0.24300011656361845,0.6508119928512942,-0.48305697903281647,0.532964021598723
100,2.4881508350372314,0.4956,0.0709,0.311,-9.532,-0.448,1.701,0.000131,0.003657,0.000572,-0.24283599499610975,0.6680693902329766,-0.4826750647093542,0.5116040962265733
101,2.514230251312256,0.4969,0.0688,0.3101,-9.539,-0.481,1.691,-0.002134,0.00028,0.009667,-0.24602786829048687,0.6645568552165877,-0.4842446450715056,0.5131681965288278
102,2.5531699657440186,0.4949,0.0704,0.3096,-9.573,-0.42,1.686,-0.009311,-7.3e-05,0.016995,-0.24891697369623123,0.6347958501207791,-0.493814402550032,0.5396497982113049
103,2.5639257431030273,0.4972,0.0707,0.3104,-9.554,-0.382,1.729,-0.015569,0.001854,0.022551,-0.2483692465389237,0.5909178057821884,-0.5039321080017555,0.578948438730219
104,2.5878396034240723,0.4956,0.0682,0.309,-9.594,-0.289,1.751,-0.012793,-0.001148,0.020419,-0.24160890444828897,0.5457056599470831,-0.5101846418677187,0.6193077596763369
105,2.6143441200256348,0.4967,0.0679,0.312,-9.552,-0.31,1.736,-0.006371,-0.004204,0.013796,-0.23387933219205467,0.5134850549025644,-0.5083634061107073,0.6505383952486044
106,2.654202699661255,0.4951,0.0687,0.3109,-9.528,-0.3,1.74,-0.000603,-0.0047,0.005845,-0.2275755018515859,0.49511265775242663,-0.5057257029402722,0.6688156401250608
107,2.6644511222839355,0.4974,0.0687,0.3123,-9.544,-0.321,1.742,0.004105,-0.006663,0.002848,-0.22664848140152946,0.4915700270346128,-0.5011538606119644,0.6751549321402416
108,2.7056515216827393,0.4959,0.0677,0.3099,-9.573,-0.34,1.719,0.011965,-0.006004,-0.00167,-0.22910337381356655,0.4955011125933567,-0.495934182433033,0.6753070251526084
109,2.7145302295684814,0.4967,0.0671,0.3112,-9.587,-0.312,1.731,0.013267,-0.007682,-1.9e-05,-0.2336022398501521,0.5020611917729119,-0.48977452982609615,0.6734132929978306
110,2.742091178894043,0.4956,0.0696,0.3104,-9.555,-0.333,1.755,0.012912,-0.007149,-0.002739,-0.2387251016216154,0.5119167341839022,-0.48365711331133754,0.6686010618160738
111,2.7801754474639893,0.4972,0.069,0.3093,-9.553,-0.319,1.735,0.021715,-0.006684,-0.002135,-0.24638839188894432,0.5240423856108941,-0.474734546348465,0.6627966874758354
112,2.7882297039031982,0.4961,0.0671,0.3104,-9.544,-0.326,1.748,0.024711,-0.007435,-0.007608,-0.2569302084581348,0.5422794895747757,-0.46437873082606707,0.6513618176747477
113,2.815133571624756,0.4967,0.0685,0.3101,-9.56,-0.319,1.78,0.027741,-0.01115,-0.008536,-0.2658781611316442,0.5601373030087751,-0.4524216361212615,0.6409911609224201
114,2.839473009109497,0.4948,0.069,0.3112,-9.557,-0.391,1.773,0.032671,-0.014907,-0.004772,-0.27499163102202334,0.5779838931530554,-0.43470608073789707,0.6335178336029554
115,2.873076915740967,0.4977,0.0696,0.3099,-9.538,-0.401,1.747,0.024059,-0.014918,0.000481,-0.2817232716365755,0.5850047151486605,-0.4172716414205778,0.6358347731434603
116,2.8884267807006836,0.4964,0.069,0.311,-9.551,-0.393,1.73,0.020034,-0.014497,0.005216,-0.28475121166570627,0.5821094914155289,-0.40195510852654537,0.6469137331888076
117,2.9132139682769775,0.4964,0.0682,0.3104,-9.554,-0.374,1.769,0.019365,-0.018429,0.009155,-0.284217945118505,0.5701370378155859,-0.38481300779037764,0.66789435303707
118,2.9392032623291016,0.4972,0.0685,0.3069,-9.568,-0.338,1.674,0.020925,-0.019901,0.012832,-0.27930047355842236,0.5522808764405156,-0.3656089047192941,0.695202997532444
119,2.964122772216797,0.4985,0.0707,0.3099,-9.571,-0.33,1.767,0.018394,-0.025199,0.008885,-0.27108646838940414,0.535142698374919,-0.34173617094854414,0.7234298919021791
120,2.999868869781494,0.4975,0.0699,0.3077,-9.537,-0.289,1.865,0.016943,-0.026439,0.00669,-0.2620389200179791,0.5243034353980931,-0.31740466354654223,0.7454500597521443
121,3.0161850452423096,0.4969,0.0674,0.3088,-9.515,-0.303,1.811,0.008523,-0.025468,0.005725,-0.2506109744311035,0.5224076515292004,-0.2987576554934265,0.7583061706214115
122,3.046351909637451,0.4975,0.0707,0.3069,-9.552,-0.296,1.85,0.012536,-0.027551,0.003004,-0.24247033793625927,0.5275494476339593,-0.281327761127939,0.7640382230889511
123,3.064117670059204,0.4977,0.0696,0.3085,-9.573,-0.289,1.782,0.011494,-0.030099,-0.000458,-0.23770490440426334,0.5403417359197438,-0.2664582938498312,0.7619233324187118
124,3.087949275970459,0.4975,0.0704,0.3072,-9.562,-0.307,1.83,0.014429,-0.030796,-0.004722,-0.23469451039398218,0.5554382498154942,-0.24924062951504397,0.7578165648966604
125,3.1134955883026123,0.4988,0.0704,0.3061,-9.519,-0.366,1.851,0.01045,-0.028942,-0.005255,-0.23122999608634082,0.5746008479139157,-0.23464004501789912,0.7492066495704093
126,3.1519598960876465,0.4972,0.0688,0.3069,-9.529,-0.335,1.796,0.009052,-0.029104,-0.005131,-0.22525764023198958,0.5928806228616736,-0.22269236001237272,0.7403780624413376
127,3.16619610786438,0.4985,0.0707,0.3091,-9.535,-0.337,1.819,0.02326,-0.033182,-0.005786,-0.22254912501911717,0.6095044118530197,-0.20183059774576537,0.7336488728939186
128,3.1888997554779053,0.4993,0.0685,0.3077,-9.578,-0.282,1.773,0.037545,-0.035538,-0.003816,-0.22353273947099106,0.6228369453961905,-0.17358115363638116,0.7293674224534572
129,3.213304042816162,0.4985,0.0693,0.3064,-9.514,-0.268,1.818,0.057659,-0.031793,-0.013072,-0.2340528026741266,0.6351137912679864,-0.13617419214043996,0.7233991616642153
130,3.240877628326416,0.4977,0.072,0.3053,-9.528,-0.312,1.876,0.058819,-0.027779,-0.013846,-0.2518490777274033,0.6479849502983649,-0.09480104742523865,0.7125309169725619
131,3.270979642868042,0.4991,0.071,0.3045,-9.529,-0.316,1.904,0.061026,-0.022053,-0.019638,-0.2713093419635482,0.6598682986369329,-0.05639486834694574,0.698415841917576
132,3.288543939590454,0.4993,0.0715,0.3045,-9.574,-0.302,1.927,0.055175,-0.018721,-0.019397,-0.29288745578549585,0.6705817669825972,-0.02036846261207753,0.6812651156229983
133,3.3134922981262207,0.4991,0.0737,0.3056,-9.546,-0.307,1.85,0.072992,-0.013991,-0.021401,-0.31741489883413243,0.6797971892215506,0.017685779417598524,0.6609166185919286
134,3.339531183242798,0.4988,0.0737,0.3018,-9.561,-0.44,1.898,0.069632,-0.012543,-0.017898,-0.34499788154338734,0.684770210875574,0.06006781371989045,0.6391072506104976
135,3.3669121265411377,0.4993,0.0726,0.3048,-9.544,-0.39,1.923,0.053748,-0.009276,-0.007941,-0.366994437924444,0.6821593534548637,0.09396084841146396,0.625415908010311
136,3.4084811210632324,0.4996,0.0724,0.301,-9.524,-0.372,1.963,0.044497,-0.009663,-0.001425,-0.38486283034237007,0.6745894678433282,0.12022915749961832,0.6183482848546176
137,3.412764549255371,0.4991,0.0729,0.3029,-9.508,-0.404,1.902,0.025165,-0.009506,0.004471,-0.3951013539203764,0.6652338784649139,0.13561535979226216,0.6188435030451792
138,3.4569718837738037,0.4975,0.0737,0.3029,-9.522,-0.388,1.92,0.017158,-0.009161,0.016106,-0.4003498935646544,0.6523028614073487,0.14565918663746835,0.6269005830836867
139,3.462449312210083,0.4988,0.0726,0.3037,-9.541,-0.283,1.891,0.01011,-0.008932,0.012068,-0.4003124785180314,0.6387787931050226,0.1506207498150821,0.6395505943607462
140,3.4912819862365723,0.4983,0.0715,0.3037,-9.532,-0.202,1.957,0.018127,-0.006394,0.004031,-0.4025651921342197,0.6293314445298926,0.1582883851820558,0.6456221697899744
141,3.524430513381958,0.4988,0.0742,0.3045,-9.544,-0.162,1.947,0.020964,-0.004326,-0.015119,-0.4081652151061378,0.6312821952980568,0.16761378004330968,0.6378005705678061
142,3.538984537124634,0.4975,0.0737,0.3026,-9.534,-0.126,1.958,0.040767,-0.000723,-0.042477,-0.4208349807537908,0.6471465015040652,0.18403020055241925,0.6084670984117726
143,3.564523458480835,0.5009,0.0737,0.3035,-9.506,-0.254,1.998,0.041163,0.001251,-0.054442,-0.4282040076776064,0.672562339470133,0.21405176270112874,0.5643430430330808
144,3.589845657348633,0.4978,0.0745,0.3021,-9.502,-0.238,1.94,0.041524,0.004554,-0.06859,-0.41903205852226766,0.7001180418069132,0.2610174604345055,0.515865047096007
145,3.6155762672424316,0.4988,0.0761,0.3032,-9.493,-0.302,1.937,0.052867,0.003217,-0.076236,-0.3933471223472619,0.7130212774103777,0.3304964843879728,0.47712762769346295
146,3.639810562133789,0.4978,0.0791,0.3016,-9.541,-0.401,1.918,0.064622,0.003104,-0.074923,-0.3646890298475248,0.6971847941909093,0.4136941348642276,0.458031043747898
147,3.664839506149292,0.4988,0.0775,0.3062,-9.531,-0.468,1.838,0.063496,0.00059,-0.064202,-0.34699955577679276,0.6578408242293571,0.4855756524307882,0.45940509796296647
148,3.6914734840393066,0.4983,0.078,0.3005,-9.508,-0.475,1.796,0.071673,-0.004347,-0.051547,-0.35013917093374175,0.6088062558300275,0.537456484258155,0.46679549201863413
149,3.7144439220428467,0.4991,0.0818,0.303,-9.511,-0.488,1.869,0.078774,-0.009018,-0.034691,-0.37038790950742073,0.5616100778539678,0.5749829319136772,0.46561952810372403
150,3.7404799461364746,0.496,0.0818,0.3019,-9.539,-0.522,1.9,0.072425,-0.010952,-0.0243,-0.3985872635116825,0.5191118689827127,0.6031636211347181,0.4558998870225762
151,3.7651150226593018,0.4989,0.0832,0.3014,-9.547,-0.412,1.846,0.056784,-0.011068,-0.020586,-0.42176027568907615,0.4856537954435511,0.6216795859212197,0.44695990118887485
152,3.8147430419921875,0.4978,0.0827,0.3,-9.525,-0.365,1.965,0.055531,-0.012276,-0.024243,-0.44378003944362815,0.45455296791155153,0.6355577913071259,0.4387563901107532
153,3.815990924835205,0.4983,0.0837,0.3014,-9.515,-0.414,1.958,0.03977,-0.012131,-0.030141,-0.46420478766198264,0.42431382876901347,0.64362553472768,0.43613972631896525
154,3.8492136001586914,0.4983,0.0826,0.3017,-9.47,-0.436,1.906,0.025993,-0.008039,-0.028623,-0.48025857621440826,0.400660376788984,0.6451882576559811,0.4388109782430905
155,3.863978147506714,0.4983,0.0835,0.3017,-9.555,-0.537,1.93,0.011792,-0.005614,-0.019759,-0.4927299256255472,0.38470419040259224,0.6426831861933943,0.44292011521722013
156,3.9037599563598633,0.4981,0.0832,0.3003,-9.508,-0.474,1.931,0.000884,-0.003457,-0.012199,-0.49863997785261416,0.37822580847409293,0.6372211409655832,0.44972505800520357
157,3.9156601428985596,0.4981,0.084,0.3009,-9.507,-0.511,1.847,0.003139,-0.004986,-0.002474,-0.5005681423605904,0.3774545691583236,0.6334688530863007,0.45351603636993787
158,3.9406039714813232,0.4973,0.0845,0.3006,-9.495,-0.486,1.892,0.003647,-0.00381,0.002488,-0.5013820298577187,0.37971252949643763,0.6317121459391072,0.4531823250659482
159,3.9733095169067383,0.4999,0.0843,0.3017,-9.515,-0.457,1.982,-0.008358,-0.00252,0.008331,-0.49778940295855323,0.3865366226378179,0.6295661573070663,0.45435845236501393
160,3.9900670051574707,0.4965,0.0829,0.3027,-9.509,-0.41,1.896,-0.01023,-0.00208,0.011284,-0.49182057201917306,0.39687387182242906,0.6254804882931359,0.45757820486555945
161,4.0140380859375,0.4973,0.0856,0.3006,-9.561,-0.375,1.908,-0.006614,-0.005643,0.007824,-0.48568634464880994,0.40730904975467414,0.6205276275124741,0.46168558143325417
162,4.0397491455078125,0.4963,0.0848,0.3006,-9.521,-0.446,1.943,-0.002077,-0.006591,0.003756,-0.48453071181976304,0.41325369635481063,0.6167858347799415,0.46263009604578276
163,4.064154863357544,0.4981,0.0859,0.3011,-9.498,-0.413,1.93,-0.006164,-0.006681,0.004039,-0.48338814583397344,0.4193130986750778,0.6117060479586538,0.46511088638893716
164,4.089018106460571,0.4978,0.0846,0.2987,-9.543,-0.463,1.947,-0.01708,-0.006537,0.00157,-0.480774093027261,0.4269059880284239,0.6048863960072056,0.46980846819177674
165,4.126735210418701,0.4989,0.0845,0.3009,-9.517,-0.464,1.877,-0.034488,-0.002838,0.007081,-0.47042014405910587,0.4413047159222567,0.5930947774938558,0.48186473275982733
166,4.143497943878174,0.4965,0.0856,0.3022,-9.553,-0.455,1.948,-0.040464,-0.006146,0.01767,-0.45489207560933076,0.4609787767693258,0.5785892694902559,0.4957884873076652
167,4.1643853187561035,0.4989,0.0835,0.3014,-9.528,-0.641,1.885,-0.056774,-0.002201,0.024348,-0.4359540022495865,0.48616295329115516,0.5610208567293087,0.5087684041727651
168,4.189252614974976,0.4976,0.0837,0.299,-9.516,-0.574,1.914,-0.090798,0.001261,0.045511,-0.400082430841004,0.5285795560090862,0.5299923119698737,0.5288155167489118
169,4.2135961055755615,0.4978,0.0824,0.3011,-9.533,-0.489,1.885,-0.077785,0.002753,0.053686,-0.3616285668429514,0.5754884798312281,0.49615099303261184,0.5402517758762191
170,4.253415822982788,0.4973,0.0821,0.3008,-9.588,-0.373,1.996,-0.075241,0.003049,0.064,-0.3306991763130725,0.6233892265028863,0.45627814604072725,0.5420647383031157
171,4.264225006103516,0.4991,0.0816,0.2987,-9.51,-0.326,1.979,-0.054365,0.000562,0.060506,-0.31485223562691184,0.6642579238844134,0.4106515837933599,0.5394392987218389
172,4.308176040649414,0.4983,0.0824,0.3017,-9.525,-0.289,2.009,-0.037686,0.005067,0.054541,-0.31203530956525843,0.6933562025400756,0.3667066340481845,0.5361132217440359
173,4.314948081970215,0.4988,0.0789,0.3016,-9.482,-0.246,1.984,-0.02438,0.005718,0.042672,-0.31668777314091734,0.7109254290422187,0.32868693424567896,0.5350315765825052
174,4.349369049072266,0.4975,0.0807,0.303,-9.481,-0.24,2.009,-0.014493,0.008451,0.02579,-0.321777485658885,0.7216807080949187,0.3009649996499941,0.5339066156851233
175,4.363911390304565,0.4991,0.081,0.3014,-9.485,-0.171,1.999,0.000885,0.009021,0.007191,-0.32555641065546376,0.7278465625023565,0.2894989207419451,0.529568484545562
176,4.39105224609375,0.4988,0.0786,0.3038,-9.537,-0.193,1.948,0.009198,0.004454,-0.015038,-0.32338289506541984,0.731522668205686,0.29484972987062263,0.5228400576424518
177,4.414638519287109,0.4983,0.0802,0.3003,-9.518,-0.323,1.872,0.015115,0.001822,-0.023438,-0.31604029771559705,0.7301062582279992,0.31638447399807557,0.5166858296190324
178,4.458336591720581,0.4965,0.0834,0.3033,-9.515,-0.418,1.901,0.01784,0.001929,-0.02237,-0.30749908801409775,0.7260642860886409,0.34026164104146717,0.5123445900688891
179,4.462993621826172,0.4981,0.0837,0.3025,-9.55,-0.375,1.941,0.015185,0.002341,-0.017677,-0.30162999411160657,0.7200179814847447,0.3619681441034988,0.509482596017896
180,4.500614404678345,0.4965,0.0816,0.3008,-9.54,-0.369,1.866,0.002947,0.004633,-0.018005,-0.2915964660650323,0.7154330446374592,0.3784355952726739,0.509817182772194
181,4.513603448867798,0.4962,0.0826,0.303,-9.518,-0.365,1.868,0.010742,0.002837,-0.019009,-0.28337110980937846,0.7097830716712761,0.3947819507667434,0.5099568772387463
182,4.539180517196655,0.4963,0.0832,0.3019,-9.492,-0.346,1.998,0.007233,0.003336,-0.019022,-0.2754827564544476,0.7000226029322025,0.41388475130464014,0.5126178097937873
183,4.564659118652344,0.4983,0.0824,0.3038,-9.529,-0.351,1.896,0.004211,0.001002,-0.020577,-0.2651440400322906,0.6872203533783523,0.43131155001656357,0.5209579356917379
184,4.590050458908081,0.4963,0.0851,0.3033,-9.536,-0.337,1.929,0.00915,0.000394,-0.02713,-0.2561488282302571,0.6689989506461174,0.4503715176577418,0.5329105721538301
185,4.614070892333984,0.4973,0.084,0.3035,-9.518,-0.417,1.88,0.005466,0.003453,-0.029767,-0.24806437174880464,0.6460385275357337,0.4667299957586911,0.5506917463222272
186,4.655625104904175,0.4957,0.0837,0.3027,-9.519,-0.445,1.866,0.013132,0.001381,-0.026185,-0.2451411778554266,0.6220555550246928,0.4790797357443859,0.568713720760863
187,4.663874864578247,0.4983,0.0842,0.3052,-9.473,-0.522,1.929,0.010381,0.001192,-0.015896,-0.24837208131520208,0.6010761174502677,0.4882482513213215,0.5819213480666765
188,4.688784599304199,0.4962,0.084,0.3049,-9.548,-0.47,1.938,0.003,0.005156,-0.006978,-0.24845122843319634,0.5893594176038697,0.49257283998685153,0.5901690107748379
189,4.715090274810791,0.4965,0.0834,0.307,-9.49,-0.452,1.914,-0.009559,0.005429,-0.004753,-0.2437863773448919,0.5824827000718513,0.4936970175513497,0.5979509688920673
190,4.737717628479004,0.4952,0.0872,0.3068,-9.539,-0.393,1.926,-0.015747,0.005578,-0.003115,-0.23517197348126131,0.5789962404776745,0.4909949507512952,0.6069443588488002
191,4.773963928222656,0.4965,0.0834,0.3062,-9.515,-0.39,1.912,-0.014575,0.00356,-0.003041,-0.22623308605306608,0.5762891986970432,0.4851851550648001,0.6174987575248808
192,4.795289516448975,0.4955,0.0845,0.307,-9.471,-0.409,1.868,-0.009554,0.002424,-0.007655,-0.22125696135075795,0.5698216409191319,0.48025505509444716,0.6290498681744451
193,4.815091848373413,0.4957,0.0831,0.3065,-9.516,-0.406,1.885,-0.007341,0.00058,-0.005992,-0.21861032184290202,0.5641304491338249,0.4749612317136065,0.6390447495386418
194,4.86353874206543,0.4949,0.085,0.3079,-9.544,-0.411,1.867,0.004688,-0.000814,-0.006885,-0.2216434505544809,0.5562905727011571,0.47313093121441174,0.6461904529458058
195,4.865420818328857,0.4957,0.084,0.307,-9.534,-0.434,1.95,0.005323,-0.000503,-0.007865,-0.22712906756242737,0.5486220079126134,0.4731166639297054,0.6508355409887978
196,4.900053262710571,0.4947,0.0845,0.3078,-9.509,-0.445,1.914,0.006027,0.000131,-0.008096,-0.23215533438727787,0.5398798032195777,0.47334516040392527,0.656184469424036
197,4.914051055908203,0.4947,0.0837,0.3086,-9.497,-0.494,1.905,0.00227,0.004421,-0.00453,-0.23400547938715685,0.5334113667031208,0.4735422664305107,0.660659875724681
198,4.950614929199219,0.4934,0.0837,0.3057,-9.516,-0.515,1.91,-0.00648,0.005848,0.010156,-0.22793647639393055,0.535420513747882,0.47261910017782754,0.6618164566812871
199,4.977395057678223,0.4952,0.0831,0.3073,-9.543,-0.556,1.909,-0.013586,0.005735,0.018473,-0.2131051985605956,0.5462937312924478,0.47347770781860227,0.6572428726854831
200,4.989660739898682,0.4936,0.0807,0.3086,-9.541,-0.385,1.954,-0.024194,0.007913,0.025282,-0.1895505496487867,0.5655003040095653,0.47225932077895716,0.6490386192133176
201,5.020941734313965,0.4954,0.081,0.3073,-9.488,-0.338,1.973,-0.026309,0.012369,0.016274,-0.16628421645426328,0.5821926889864094,0.4696426254376727,0.6425239580132212
202,5.04797887802124,0.4936,0.0807,0.3059,-9.513,-0.299,1.886,-0.019227,0.012153,0.004575,-0.14679363252697003,0.5889375281512331,0.4666686572540769,0.6432919879194279
203,5.064540386199951,0.4934,0.0812,0.307,-9.538,-0.363,1.899,-0.006161,0.011524,-0.00395,-0.13450195955488434,0.5863010137134648,0.46701293430475677,0.6481197909233454
204,5.090449094772339,0.4928,0.0788,0.3064,-9.546,-0.409,1.923,0.003921,0.010229,-0.006635,-0.1305178267485359,0.5741097832456588,0.4703318899747807,0.6573819034284507
205,5.114808559417725,0.4926,0.0793,0.3067,-9.504,-0.424,1.89,0.001378,0.011866,-0.006993,-0.1270683155430297,0.5604981223097167,0.4729905751172858,0.6678139066555578
206,5.140636920928955,0.4918,0.0799,0.308,-9.512,-0.406,1.893,0.005488,0.014583,-0.005785,-0.12577585445064973,0.544489567304382,0.4769470750070903,0.6784047708971959
207,5.165071249008179,0.4931,0.0815,0.3046,-9.519,-0.401,1.899,0.007716,0.012804,-0.007119,-0.12484036777576399,0.5297720832760211,0.4799331309115761,0.6880556752243299
208,5.204160213470459,0.4915,0.0793,0.3067,-9.538,-0.431,1.926,0.006069,0.012247,-0.004281,-0.12654399519674245,0.513211908122944,0.48322992863688446,0.6979176102592951
209,5.215308666229248,0.4915,0.0799,0.308,-9.52,-0.424,1.909,0.0039,0.015116,-0.00714,-0.12700499495533585,0.4947851934872396,0.4842694361242452,0.7103101131182745
210,5.264199733734131,0.4905,0.0809,0.3078,-9.528,-0.406,1.891,0.002723,0.016068,-0.007786,-0.1272435660835584,0.4750932615605834,0.4822239224794478,0.7249521062101976
211,5.266267776489258,0.4926,0.081,0.3078,-9.486,-0.421,1.936,0.001622,0.015958,-0.010339,-0.13084827558737777,0.45366176039523143,0.47741159121193755,0.741045146065606
212,5.290032625198364,0.4902,0.0812,0.3097,-9.522,-0.429,1.881,-0.004054,0.019209,-0.005902,-0.13309327548688127,0.4320845951516304,0.4704631852244879,0.7577951398638381
213,5.319692134857178,0.4907,0.0804,0.3089,-9.554,-0.39,1.872,-0.002283,0.018951,-0.00419,-0.1338869455614564,0.41168537534138644,0.46227386926018255,0.7738813263914985
214,5.338698863983154,0.4889,0.0826,0.3086,-9.522,-0.397,1.855,0.007987,0.017452,-0.008237,-0.14302921871116636,0.38810639534076846,0.4535336759222337,0.7894449146678537
215,5.364449977874756,0.4905,0.0818,0.3094,-9.54,-0.395,1.877,0.005611,0.01616,-0.008784,-0.15781212236679779,0.3642914515514839,0.44227361932304593,0.8042270313857232
216,5.3908562660217285,0.4892,0.0831,0.3099,-9.517,-0.427,1.887,0.007271,0.015161,-0.012124,-0.17673146280002763,0.3406884813020208,0.4256659427458769,0.8194546076207937
217,5.413501739501953,0.4894,0.0828,0.3091,-9.532,-0.426,1.889,0.007014,0.01551,-0.009052,-0.19706817036575955,0.31794448678535714,0.40608042701484853,0.833771027529097
218,5.461194038391113,0.4873,0.0826,0.3099,-9.554,-0.394,1.887,0.008063,0.016382,-0.014793,-0.22438572362868184,0.2961245919595893,0.3824845123477758,0.8459709633802354
219,5.463602542877197,0.49,0.0831,0.3086,-9.538,-0.383,1.834,0.012596,0.015426,-0.013104,-0.2573245981538257,0.2768979198301899,0.35506236893802,0.8550101211931982
220,5.504870414733887,0.4894,0.0839,0.3102,-9.491,-0.422,1.862,0.018188,0.015708,-0.018762,-0.3001258790051726,0.259379982012055,0.3226249669394357,0.8593949106145129
221,5.513761281967163,0.4894,0.0837,0.3081,-9.509,-0.409,1.842,0.025784,0.009095,-0.021178,-0.3516601933262952,0.24846120933402288,0.2870391616866274,0.8556930848991511
222,5.540259838104248,0.4889,0.0842,0.3105,-9.518,-0.426,1.811,0.027475,0.008465,-0.020966,-0.4046669558793232,0.24460102965746341,0.254236771648428,0.8436697547332459
223,5.5634400844573975,0.4905,0.0839,0.3094,-9.577,-0.466,1.815,0.026051,0.0081,-0.01753,-0.45405840684308113,0.24648440187047438,0.2237443757755177,0.8264471290521259
224,5.5893049240112305,0.4879,0.082,0.3113,-9.569,-0.502,1.8,0.020567,0.009283,-0.010812,-0.49327979406384576,0.24963620022998645,0.20077139271405067,0.8087321312837301
225,5.613358497619629,0.4894,0.0836,0.3129,-9.536,-0.482,1.797,0.01955,0.008794,-0.008388,-0.522019774221643,0.2526272061778523,0.18307819079623502,0.793824430258439
226,5.639162540435791,0.4881,0.085,0.311,-9.529,-0.502,1.841,0.024654,0.005976,-0.006469,-0.5450351566972227,0.252081031204933,0.17417910352292873,0.7804187796091533
227,5.671154975891113,0.4897,0.0852,0.3132,-9.546,-0.459,1.819,0.02179,0.00717,-0.000445,-0.5625751978020691,0.247914486567633,0.1695799966759851,0.7702533212490827
228,5.696339845657349,0.4879,0.0847,0.3102,-9.56,-0.491,1.82,0.018003,0.008157,0.001311,-0.5743285337990577,0.2420257606823641,0.1681534680792198,0.7637373092911455
229,5.713452577590942,0.4889,0.0847,0.3102,-9.529,-0.497,1.831,0.012914,0.007408,0.002901,-0.5800904493144188,0.23257101393593843,0.16960755247534226,0.7619967665510986
230,5.739894151687622,0.4886,0.0842,0.3118,-9.517,-0.462,1.789,0.008715,0.00408,0.006867,-0.5793522858611232,0.2229420729662415,0.1735590534496925,0.7645423571880455
231,5.76456093788147,0.4902,0.0845,0.3105,-9.553,-0.494,1.82,0.014274,0.004267,0.009437,-0.5725260721516596,0.208499972597627,0.1851992285560228,0.7710012346784118
232,5.805830001831055,0.4892,0.0828,0.3091,-9.562,-0.467,1.82,0.015326,0.004158,0.014501,-0.5553704620018162,0.18884534084541732,0.20728755597204887,0.7829003489052754
233,5.814472913742065,0.4892,0.0817,0.3102,-9.545,-0.458,1.815,0.008137,0.001636,0.017287,-0.5298132739781907,0.1689968216395146,0.234795227074085,0.7972510083627875
234,5.859708786010742,0.4889,0.0823,0.3094,-9.516,-0.453,1.815,0.004599,0.000961,0.018524,-0.497162642560003,0.1516970500261235,0.2666806398413562,0.8116025802016226
235,5.864230632781982,0.4905,0.0825,0.3118,-9.53,-0.424,1.773,0.001047,0.000638,0.021462,-0.45825780405875954,0.13992103813824402,0.30160813270562126,0.8242902537282532
236,5.897848129272461,0.4907,0.0804,0.3091,-9.507,-0.45,1.838,0.006957,-0.001996,0.017946,-0.41999122488154295,0.13140961020065844,0.33948553950036525,0.8313173003369759
237,5.915605545043945,0.4912,0.0807,0.3113,-9.541,-0.382,1.827,0.007922,-0.004238,0.01764,-0.3818549353318212,0.1293614845923831,0.3783213164413049,0.8332619013208892
238,5.944366455078125,0.4894,0.082,0.3118,-9.566,-0.403,1.841,0.00547,-0.005317,0.009721,-0.35409711064195853,0.13081909637290637,0.4091389045797621,0.8307267643566475
239,5.964202404022217,0.4907,0.0791,0.308,-9.562,-0.445,1.84,-0.000384,-0.004458,0.010587,-0.3273015974102008,0.1355092066969767,0.4344448026100611,0.8281114856818447
240,5.990147352218628,0.4899,0.0804,0.3094,-9.524,-0.405,1.867,-0.006807,-0.001453,0.012817,-0.3025291048326637,0.14045603928425698,0.4527740726874623,0.8268880703334248
241,6.016751050949097,0.4907,0.0823,0.3094,-9.536,-0.382,1.832,-0.005218,-0.000504,0.009109,-0.2812442851718279,0.14591717513421865,0.46711114392092434,0.8254798660681695
242,6.039804935455322,0.4889,0.0801,0.311,-9.54,-0.409,1.821,-0.001564,-0.002488,0.007139,-0.2663056896635303,0.15145229087243828,0.4771834200372384,0.8236743694469838
243,6.071883916854858,0.4915,0.0815,0.3094,-9.544,-0.437,1.801,-0.005089,-0.004624,0.009395,-0.25105528468793775,0.15920314925710383,0.4876946963701487,0.8208407180624676
244,6.1005940437316895,0.4918,0.0804,0.3094,-9.512,-0.454,1.816,-0.011489,-0.003501,0.01295,-0.22755370657579999,0.17048358004772288,0.5025549398625258,0.8164515858135738
245,6.115069150924683,0.4923,0.0815,0.31,-9.561,-0.399,1.826,-0.015408,-0.001603,0.021038,-0.18845638170156798,0.19015765444474703,0.5268557867139086,0.8066890594634922
246,6.1441333293914795,0.491,0.0812,0.3078,-9.554,-0.363,1.813,-0.006589,-0.003991,0.02136,-0.14641446648684983,0.21655117157692508,0.5576873873086948,0.7878154429362464
247,6.163760662078857,0.4933,0.0804,0.3086,-9.565,-0.36,1.825,-0.009137,-0.004622,0.022065,-0.10636985184562192,0.24746669972805396,0.5867491925690244,0.7636563835676641
248,6.210814714431763,0.4933,0.0793,0.3064,-9.516,-0.386,1.895,-0.00808,-0.001725,0.019434,-0.07371546764140051,0.2787922852018287,0.6085524071677401,0.7392596697187673
249,6.213845729827881,0.4939,0.0812,0.3092,-9.524,-0.369,1.82,-0.012664,-0.000289,0.021971,-0.04243477212186156,0.3134894584144172,0.6275006972526,0.7114538105355132
250,6.252103090286255,0.4926,0.0801,0.3083,-9.572,-0.35,1.864,-0.007082,-0.001618,0.019174,-0.015380909485173483,0.3483607554179885,0.6428016228332524,0.6820661884237884
251,6.263838529586792,0.4946,0.0796,0.3083,-9.528,-0.344,1.856,-0.00635,0.000776,0.017159,0.00688758098689593,0.38225537443242874,0.6554796558485518,0.6512908802634477
252,6.306898593902588,0.4936,0.078,0.3083,-9.566,-0.322,1.841,-0.004036,0.000879,0.013781,0.021728582939285424,0.4068542710055378,0.6614216297487483,0.6296974658901786
253,6.314916372299194,0.4946,0.0782,0.3089,-9.572,-0.332,1.825,-0.005415,0.002512,0.00776,0.03252170285072395,0.42455705365613816,0.6643406563864559,0.6142842495999074
254,6.340494155883789,0.4939,0.0796,0.3091,-9.534,-0.355,1.859,-0.003552,0.003918,0.007155,0.041175900890405404,0.43496243283280944,0.6666310269208396,0.6039166342770285
255,6.375545978546143,0.4957,0.0761,0.3083,-9.556,-0.367,1.852,-0.002914,0.004655,0.006467,0.04826348954788082,0.43875943528551664,0.6668351987935688,0.6004095362121904
256,6.388597249984741,0.4946,0.0777,0.3075,-9.546,-0.313,1.816,-0.001256,0.005148,0.003179,0.05401861926463036,0.43979627337030547,0.6672656741200153,0.5986800037110778
257,6.415271043777466,0.4959,0.0769,0.3081,-9.546,-0.346,1.825,0.006295,0.005518,-0.00184,0.05686127434593738,0.43487343944379675,0.6684121293014733,0.6007304824534452
258,6.43992018699646,0.4944,0.0791,0.3078,-9.522,-0.372,1.83,0.00469,0.004563,-0.002309,0.05776107866533761,0.4265838536794515,0.6693426657535446,0.6055330456493218
259,6.47135853767395,0.4951,0.0788,0.311,-9.532,-0.347,1.869,0.006165,0.004576,-0.006114,0.05540386710149983,0.4077397204339693,0.6675115259601857,0.6205699755877109
260,6.489925384521484,0.4957,0.078,0.3086,-9.58,-0.338,1.783,0.008375,0.005042,-0.008018,0.04914470312169808,0.3816114093695396,0.6641196403504772,0.641016874734844
261,6.514301538467407,0.4965,0.0777,0.3073,-9.563,-0.324,1.803,0.011098,0.005486,-0.01459,0.036462717298895164,0.34597229745783703,0.6557783711157836,0.6700211695279905
262,6.53812837600708,0.4954,0.0799,0.31,-9.566,-0.353,1.868,0.012917,0.006434,-0.017156,0.013047769780500623,0.30130120375044356,0.6395612867831298,0.7071129335336723
263,6.564239501953125,0.4965,0.0802,0.3076,-9.524,-0.367,1.809,0.010908,0.005812,-0.020095,-0.020087274586319592,0.25211027360605515,0.6128252898045821,0.7486535083187039
264,6.590864419937134,0.497,0.0788,0.3078,-9.529,-0.427,1.826,0.012344,0.006356,-0.020293,-0.06133341997164785,0.20572780221470466,0.5783821851843174,0.7870122812586235
265,6.61461329460144,0.4967,0.0799,0.3086,-9.533,-0.386,1.81,0.006093,0.00605,-0.017607,-0.10387751120428157,0.1687932272262017,0.5402904194886506,0.8178047271307167
266,6.641995191574097,0.4957,0.0801,0.3089,-9.574,-0.394,1.836,0.009944,0.005322,-0.016706,-0.14342208265383297,0.1407010654451779,0.503942200589765,0.8400449838279936
267,6.674701690673828,0.4973,0.0804,0.3084,-9.529,-0.376,1.835,0.014809,0.004733,-0.015885,-0.18521089686483355,0.11784344675539071,0.46914628446880685,0.8554014317900379
268,6.700861692428589,0.4975,0.0799,0.3073,-9.493,-0.352,1.866,0.01586,0.004311,-0.016364,-0.2349927872709991,0.09709236990644139,0.42868282633190663,0.8669385768580414
269,6.7141218185424805,0.4975,0.081,0.307,-9.536,-0.435,1.813,0.012866,0.00347,-0.02102,-0.300477573028441,0.08156565601447896,0.3735530509596756,0.8737953936618021
270,6.739513158798218,0.4975,0.0818,0.3089,-9.537,-0.466,1.797,0.002723,0.005103,-0.016837,-0.3563141861494959,0.07666471020927966,0.3203772465329561,0.8743689969693064
271,6.7758567333221436,0.4975,0.0818,0.3081,-9.57,-0.442,1.808,-0.004677,0.00181,-0.005211,-0.38710235782874924,0.078227042130994,0.28557836430240935,0.8731994573321832
272,6.788614511489868,0.4967,0.0802,0.3081,-9.522,-0.405,1.784,-0.006917,0.001476,-0.000258,-0.39723528001347164,0.07987778408039803,0.267391805204781,0.874256995643931
273,6.820759296417236,0.4986,0.0791,0.307,-9.547,-0.452,1.764,0.002286,-0.000829,-0.001456,-0.40245989791537773,0.08092928901182109,0.2593210247712177,0.8742019714354288
274,6.852406978607178,0.4975,0.0804,0.3086,-9.521,-0.432,1.785,0.00314,-0.000426,0.005039,-0.4023333252114444,0.08002619458747097,0.2589881845857745,0.8744420071389041
275,6.863464593887329,0.4991,0.082,0.3095,-9.577,-0.378,1.823,0.004957,-0.001661,0.001531,-0.39985769787746783,0.0784996099002545,0.26148055717563884,0.8749740287075707
276,6.905707836151123,0.4999,0.0791,0.3092,-9.556,-0.418,1.816,0.002309,-0.00117,0.003209,-0.40106543232222924,0.0778562030520586,0.26099518229704716,0.8746236021627994
277,6.913227081298828,0.4983,0.0791,0.3089,-9.529,-0.386,1.83,-0.001218,-0.001848,0.000612,-0.40009796202428627,0.07936935170689624,0.25933202434683617,0.8754250555826077
278,6.955712795257568,0.4978,0.0807,0.3076,-9.526,-0.394,1.757,0.001846,-0.00291,-0.004035,-0.4067913088965274,0.08168464484457504,0.25143486687236377,0.8744306476352155
279,6.964547157287598,0.4988,0.0826,0.3068,-9.543,-0.421,1.812,0.000524,-0.004092,-0.00186,-0.4170948534402382,0.08581239945738225,0.2403812925598524,0.872287194403476
280,6.990156650543213,0.4983,0.0818,0.3089,-9.556,-0.418,1.776,0.003901,-0.004697,-0.001067,-0.42983114073407636,0.09173963354561923,0.22853020510249633,0.8686788678493159
281,7.030271768569946,0.4991,0.0794,0.3078,-9.523,-0.383,1.832,0.000959,-0.004855,-0.00047,-0.4349596018938059,0.095747199188543,0.22357176133623574,0.8669822870745081
282,7.039327383041382,0.4986,0.0815,0.3068,-9.533,-0.389,1.786,0.002786,-0.007345,-0.000994,-0.4422963460574125,0.10115632514965718,0.21613870184353373,0.8645376809092075
283,7.065239191055298,0.4996,0.0796,0.3062,-9.545,-0.41,1.828,-0.001841,-0.006075,-0.00083,-0.4516509239982486,0.10899653256323616,0.20566501001514698,0.8612973368101107
284,7.090083837509155,0.4986,0.0802,0.3078,-9.558,-0.41,1.835,-0.000935,-0.007078,-0.003185,-0.46124259849392174,0.11632206691354183,0.1956765408348177,0.8575751474071858
285,7.117387294769287,0.4988,0.0815,0.3065,-9.56,-0.398,1.829,-0.00184,-0.006796,-0.003889,-0.4678679948549493,0.12361341222585562,0.18716756176460886,0.854861139326956
286,7.140371799468994,0.4991,0.0807,0.307,-9.535,-0.401,1.818,-0.002271,-0.006967,-0.000859,-0.47359320970587915,0.1311951127657736,0.17974227204584592,0.8521678413004427
287,7.164872884750366,0.4999,0.0794,0.3076,-9.534,-0.434,1.822,-0.002878,-0.007909,0.002024,-0.47573633848846236,0.13823771642984603,0.1743793684752844,0.850974209860683
288,7.190059185028076,0.4986,0.0796,0.3059,-9.533,-0.459,1.851,-0.004235,-0.0081,0.001838,-0.4767247419963643,0.14441571206892165,0.16990900062308573,0.850299096779122
289,7.215407848358154,0.4999,0.0804,0.3062,-9.564,-0.399,1.835,-0.009437,-0.007262,0.004212,-0.47046054240863877,0.14891612384322506,0.16893398675448504,0.8532011335056431
290,7.263639450073242,0.4983,0.0799,0.307,-9.563,-0.399,1.841,-0.01119,-0.005482,0.005982,-0.4626064941344872,0.15328084601388708,0.16845415809887937,0.8568100200447376
291,7.2651612758636475,0.4993,0.0788,0.3059,-9.552,-0.423,1.83,-0.009728,-0.004165,0.00475,-0.45235704910425917,0.15554809065387612,0.1703825047260369,0.8614799438773386
292,7.303464651107788,0.5004,0.0791,0.3057,-9.527,-0.406,1.807,-0.009337,-0.00348,0.005717,-0.43963438831687224,0.15751970649736002,0.1724644187847471,0.8672745649028768
293,7.313737630844116,0.4996,0.0791,0.3095,-9.52,-0.376,1.872,-0.001127,-0.005916,0.005369,-0.4295750442887346,0.15809514721280066,0.1781621906805648,0.8710507675009516
294,7.340743541717529,0.4994,0.0802,0.3068,-9.543,-0.365,1.818,-0.004724,-0.005626,0.003508,-0.42333941496130434,0.16080996626385236,0.17967852407244844,0.873292346512659
295,7.367155075073242,0.4993,0.0794,0.3073,-9.554,-0.392,1.85,-0.003081,-0.004734,0.005733,-0.4136903841251939,0.16108325602168125,0.18523190679103463,0.8766992593919312
296,7.40083646774292,0.5001,0.0786,0.3051,-9.543,-0.385,1.85,-0.004597,-0.003744,0.005791,-0.40699703105629165,0.16264515872523244,0.18605910038532408,0.8793645320448238
297,7.4148406982421875,0.4991,0.081,0.3068,-9.532,-0.412,1.878,-0.000453,-0.003883,0.003804,-0.40105750300445814,0.16333449220097163,0.18871637345101322,0.8813971030884873
298,7.447688579559326,0.4994,0.0813,0.307,-9.528,-0.436,1.864,-0.000278,-0.001939,0.002069,-0.39732473202655744,0.16313481020147844,0.18912915141463849,0.8830346851091019
299,7.466198205947876,0.5001,0.0799,0.3073,-9.54,-0.398,1.819,0.000392,-0.001526,0.004265,-0.3859673023831921,0.16042520596795423,0.1969806648532917,0.8868436234506828
300,7.49189829826355,0.4986,0.0791,0.3067,-9.552,-0.385,1.873,0.002098,0.000802,0.008043,-0.3739628494242146,0.1563238172554649,0.2066842355755209,0.890503384706518
301,7.517163038253784,0.4991,0.0775,0.3081,-9.532,-0.384,1.827,0.003444,-7.6e-05,0.00575,-0.36605069975421284,0.15455682575784596,0.21336690339819753,0.8925209450513607
302,7.542414903640747,0.4986,0.0785,0.3076,-9.522,-0.374,1.89,0.005738,0.003767,-0.000275,-0.3661245291176825,0.15171826169024766,0.2139465673541931,0.8928388793984066
303,7.569681882858276,0.4999,0.0796,0.3087,-9.537,-0.382,1.856,0.002291,0.003849,-0.001472,-0.37259420926273285,0.14994908141513902,0.2061877384888428,0.8922866381962083
304,7.589982748031616,0.4991,0.0783,0.3089,-9.546,-0.347,1.876,0.002841,0.006115,-0.003147,-0.3882614507148546,0.14997520592305424,0.18833291600922666,0.8895454998169546
305,7.614859104156494,0.4991,0.0796,0.3081,-9.566,-0.367,1.843,0.004139,0.007147,-0.005346,-0.409977109040115,0.15226285564251102,0.16545736663042626,0.8839449375851542
306,7.639956951141357,0.4993,0.0796,0.3068,-9.538,-0.376,1.843,0.006524,0.005556,-0.007192,-0.4350518936422979,0.15611765767740815,0.14056721454144755,0.8755558148945326
307,7.675068616867065,0.4996,0.081,0.3076,-9.523,-0.391,1.848,0.003109,0.007199,-0.009517,-0.46056461755355427,0.1615937345093802,0.11501727749630342,0.8651813242912716
308,7.688500881195068,0.5001,0.0794,0.307,-9.552,-0.39,1.839,0.002183,0.010548,-0.008978,-0.489930201637891,0.1713755228708852,0.0836592156900697,0.8506467911618245
309,7.721742153167725,0.4993,0.0796,0.3068,-9.555,-0.405,1.806,0.006233,0.008305,-0.013225,-0.5237088986854206,0.18743239139292378,0.04907211741170763,0.8295721881712076
310,7.739807605743408,0.4988,0.0813,0.3068,-9.518,-0.405,1.802,0.00862,0.005619,-0.012023,-0.5543838160816702,0.2044486414756308,0.020985801711586163,0.8064855445648209
311,7.774313926696777,0.4996,0.078,0.3073,-9.535,-0.444,1.794,0.010595,0.003724,-0.006779,-0.5799222930166339,0.22215170351365587,-0.0007118809673149346,0.7837973257888793
312,7.791969299316406,0.4991,0.0794,0.3078,-9.534,-0.433,1.816,0.007985,0.006687,-0.003261,-0.5995474802280003,0.2350297992264478,-0.017150129792298865,0.7648592586064045
313,7.816032648086548,0.5006,0.0796,0.3087,-9.555,-0.367,1.833,0.007957,0.007542,-0.005265,-0.6170246311333056,0.24828532142243664,-0.0339013229434747,0.745979694122868
314,7.838424444198608,0.4991,0.0804,0.3081,-9.57,-0.378,1.849,0.003432,0.006671,-0.010198,-0.6373395808384583,0.26980680753411923,-0.053611688866691626,0.7198113170281264
315,7.863724231719971,0.4996,0.0804,0.3097,-9.546,-0.355,1.87,0.011432,0.004839,-0.01794,-0.6630150726892737,0.3064749907451588,-0.0773056281658341,0.6786073483896838
316,7.889291524887085,0.4991,0.081,0.3095,-9.512,-0.409,1.798,0.002483,0.004451,-0.018569,-0.6873281762993916,0.3551372213603414,-0.09945504542236408,0.6257525277691205
317,7.915893793106079,0.4999,0.0815,0.3084,-9.531,-0.451,1.824,0.008362,0.005473,-0.020301,-0.7058582060702655,0.4137560334513224,-0.11492855156119927,0.5633485295462652
318,7.956112623214722,0.4991,0.0818,0.306,-9.564,-0.432,1.788,0.007101,0.002511,-0.015943,-0.7151187758907734,0.46819926531180406,-0.12066925963006504,0.504810374408352
319,7.965203762054443,0.4999,0.0823,0.3065,-9.524,-0.441,1.797,0.011127,0.001124,-0.015186,-0.7173401743803572,0.5161944179452751,-0.11798849290624629,0.4528190727473943
320,7.989788293838501,0.4988,0.0804,0.3092,-9.547,-0.478,1.79,0.010825,-0.001077,-0.010854,-0.7153424201460977,0.5551561510499408,-0.10970485659463108,0.409941110807992
321,8.01572036743164,0.4988,0.0826,0.3076,-9.514,-0.459,1.799,0.004992,-0.001956,-0.009793,-0.7105219908436444,0.5838917277865595,-0.1012864934312123,0.37943378473512274
322,8.050650835037231,0.4999,0.0818,0.3084,-9.559,-0.427,1.833,0.005053,-0.003687,-0.00821,-0.7034949867631928,0.6095235989226135,-0.09073190727020583,0.3540388495046707
323,8.064279794692993,0.4994,0.0829,0.309,-9.559,-0.42,1.8,0.010304,-0.007782,-0.006698,-0.6973337330900738,0.6296318651053976,-0.07889101673430267,0.3332650395963966
324,8.090043067932129,0.5004,0.0821,0.3057,-9.55,-0.431,1.808,0.012089,-0.007135,-0.006436,-0.6898148209890748,0.6502309326238802,-0.06286645530584267,0.3120946263558029
325,8.114160537719727,0.4999,0.0832,0.3068,-9.532,-0.464,1.819,0.004942,-0.007451,-0.007517,-0.6814851696608278,0.6682652820016887,-0.04888485084461064,0.2942953410461275
326,8.144299745559692,0.4991,0.0829,0.3071,-9.511,-0.435,1.825,0.002395,-0.007072,-0.007939,-0.6683238183186955,0.6897412678290473,-0.033254476518676065,0.2765762048929126
327,8.163763046264648,0.5001,0.0815,0.3054,-9.56,-0.45,1.779,0.003152,-0.010317,-0.0073,-0.6545244268288251,0.7091464015446765,-0.017268788766501952,0.26155486001061523
328,8.188821077346802,0.5001,0.0829,0.3068,-9.561,-0.444,1.805,0.003006,-0.013815,-0.009126,-0.6422487969747063,0.7239601489399531,-0.0009815282254148905,0.2517880500216927
329,8.214188814163208,0.5004,0.0813,0.3057,-9.54,-0.516,1.799,-0.007821,-0.010957,0.002391,-0.6329265878317611,0.7323878703068117,0.007681340834370762,0.25090424238358944
330,8.262034177780151,0.4996,0.0831,0.3081,-9.547,-0.408,1.824,-0.032353,-0.010756,0.007612,-0.624626096058957,0.7338654183389071,-0.0028177945205944965,0.2669753695052172
331,8.264464855194092,0.5001,0.0815,0.3079,-9.563,-0.455,1.746,-0.026603,-0.009747,0.001071,-0.611563549426083,0.7401437623331334,-0.01087662192014388,0.2793902918648593
332,8.302066564559937,0.5001,0.0823,0.3063,-9.588,-0.474,1.785,-0.04662,-0.011393,0.007467,-0.5988971151840433,0.7432854416562568,-0.025273567920230555,0.2970020949600783
333,8.322290658950806,0.5009,0.0815,0.3079,-9.489,-0.419,1.883,-0.021239,-0.009972,0.009802,-0.5932909180155671,0.7370324102072651,-0.04479422294987084,0.3205972403103815
334,8.340778112411499,0.4988,0.0826,0.306,-9.509,-0.486,1.91,-0.030701,-0.009884,0.011826,-0.5890304219891076,0.7293505044881966,-0.05994803998332693,0.3427786983992794
335,8.391225099563599,0.5001,0.0818,0.306,-9.516,-0.402,1.841,-0.027301,-0.008347,0.009968,-0.5804489124442223,0.7231567254337586,-0.07838555666779701,0.3660315765178225
336,8.392590522766113,0.4996,0.0805,0.3057,-9.532,-0.475,1.889,-0.010991,-0.01284,0.008714,-0.5761426633818331,0.7153317290211902,-0.08866093523380736,0.3853561825769879
337,8.414532899856567,0.5015,0.0818,0.306,-9.526,-0.442,1.88,-0.006273,-0.014135,0.008403,-0.5750751079421041,0.7034302790642235,-0.09532440231996503,0.40667889180943156
338,8.439860343933105,0.4994,0.0807,0.3049,-9.545,-0.411,1.836,-0.000601,-0.012615,0.008085,-0.5759054020275028,0.6884097760697375,-0.10082797064571208,0.4292536178794787
339,8.481855392456055,0.5007,0.0818,0.3052,-9.525,-0.405,1.901,0.007146,-0.012099,0.004372,-0.5794625110233109,0.6722159905003059,-0.10058895524597067,0.44970070326471123
340,8.488985776901245,0.5004,0.0824,0.3046,-9.515,-0.394,1.907,0.008645,-0.012892,0.003817,-0.5806839121699853,0.6634163911588086,-0.0963388356502344,0.46195639927848237
341,8.515892744064331,0.5014,0.0791,0.3043,-9.538,-0.448,1.876,0.002696,-0.01305,0.001201,-0.5790631738279433,0.6587374778475582,-0.09123144735673447,0.47162230546120504
342,8.539164066314697,0.4996,0.0805,0.3054,-9.568,-0.456,1.845,0.00278,-0.013901,0.001995,-0.5749725698286441,0.6589460750786986,-0.08595056437191956,0.4772935308247659
343,8.565117359161377,0.5017,0.0813,0.3054,-9.514,-0.403,1.841,0.003739,-0.015249,-0.000788,-0.5709713169615943,0.6595137905543893,-0.0802345970600192,0.48228178973535807
344,8.58963131904602,0.5004,0.0796,0.3057,-9.496,-0.411,1.839,0.010777,-0.017377,-0.004438,-0.5668797126725946,0.6634649019353627,-0.06992941072894127,0.48329245056718945
345,8.616973161697388,0.4999,0.0794,0.3019,-9.491,-0.427,1.886,0.010176,-0.01744,-0.006964,-0.5634070980160842,0.6693756943332099,-0.05597530274904913,0.48101495530095506
346,8.659859895706177,0.4996,0.0837,0.3038,-9.554,-0.418,1.886,0.009359,-0.018241,-0.008892,-0.5573405025079474,0.6803106775044863,-0.03974553414024179,0.4743092228214444
347,8.666085004806519,0.5009,0.0818,0.3049,-9.568,-0.359,1.856,0.008746,-0.015941,-0.010044,-0.5487236659774457,0.6954813926203331,-0.022971724953119332,0.4633360236025606
348,8.689513206481934,0.5004,0.0826,0.3038,-9.532,-0.411,1.915,0.010585,-0.016929,-0.016891,-0.5359641403226154,0.7181163674591184,0.001080547721033387,0.4439033177305421
349,8.718281269073486,0.5009,0.0824,0.3028,-9.518,-0.422,1.875,0.013813,-0.018994,-0.01828,-0.5179922891918932,0.743289570243773,0.0312863018097386,0.4221679410183101
350,8.739493608474731,0.5015,0.0848,0.3022,-9.52,-0.465,1.87,0.008136,-0.01995,-0.020381,-0.4948299849437393,0.768094298744145,0.06619252654090996,0.40099000444830274
351,8.764914989471436,0.5007,0.0816,0.3033,-9.532,-0.516,1.871,0.015729,-0.021589,-0.018009,-0.4744916510726768,0.7832467536668497,0.10164190672495885,0.3886529540991309
352,8.788450956344604,0.5015,0.0816,0.3017,-9.547,-0.412,2.012,-0.00015,-0.023349,-0.017023,-0.45418581328567853,0.7932883288127908,0.13230110037154275,0.38328226311677316
353,8.824127197265625,0.5009,0.0821,0.3044,-9.523,-0.339,1.978,-0.015792,-0.025088,-0.025207,-0.4183892603115847,0.8080541112047726,0.1615014652301992,0.3819898649826834
354,8.847265243530273,0.5004,0.0853,0.3033,-9.504,-0.523,1.945,-0.042718,-0.027777,-0.025713,-0.3637180373724843,0.8255162988752761,0.1938048541876428,0.38557970391928104
355,8.865594625473022,0.5012,0.0846,0.3009,-9.659,-0.494,1.837,-0.096788,-0.022697,-0.016789,-0.28722039057132775,0.8434785838144301,0.20304781365833285,0.40598018579116446
356,8.888434648513794,0.5007,0.0824,0.3011,-9.495,-0.513,1.996,-0.049675,-0.017822,-0.01207,-0.2226969363800405,0.8526590262623257,0.20389775124603376,0.42638523250358645
357,8.921468734741211,0.5017,0.0824,0.3025,-9.462,-0.648,2.03,-0.049226,-0.009727,-0.003214,-0.18313518773985227,0.8549471710997071,0.20151585240061415,0.441495412061497
358,8.944474935531616,0.5004,0.0837,0.2998,-9.396,-0.468,1.95,-0.039581,-0.010949,0.001338,-0.15140834544220766,0.8582476560078727,0.18689499709134794,0.45338364984819446
359,8.964622497558594,0.5017,0.0835,0.3003,-9.448,-0.532,1.936,-0.018401,-0.018694,-6e-05,-0.13243679214328785,0.8560807380583437,0.17982747543641778,0.4660990721836307
360,8.988665342330933,0.5009,0.0821,0.3019,-9.527,-0.531,1.916,0.005371,-0.017685,0.006254,-0.13482861861008802,0.8519637804605381,0.17177458825752817,0.47589121783874105
361,9.02525520324707,0.5007,0.0807,0.3027,-9.469,-0.554,1.93,0.013268,-0.014293,0.012159,-0.15343845869244319,0.8473660795401249,0.16384959352344494,0.4812283006443907
362,9.038909673690796,0.5004,0.0829,0.3003,-9.526,-0.44,1.98,0.015693,-0.016277,0.015635,-0.17676181052686177,0.8417019311616335,0.15117321510204704,0.48727792937270703
363,9.065814733505249,0.5017,0.0824,0.3011,-9.516,-0.46,1.97,0.011469,-0.01149,0.017338,-0.2017049477877761,0.8339938984295977,0.1361719131274978,0.49520349503545447
364,9.090954542160034,0.501,0.0824,0.299,-9.517,-0.465,2.012,0.006846,-0.012752,0.01376,-0.22153285616346302,0.8260673952679679,0.12079797940255951,0.5039282689902521
365,9.127880096435547,0.5012,0.0824,0.3009,-9.483,-0.409,1.991,0.000772,-0.012241,0.005919,-0.23244398441903827,0.8189219152659397,0.11105140993000003,0.5128394243397498
366,9.138405323028564,0.5015,0.0816,0.2995,-9.516,-0.451,1.933,0.00871,-0.015329,0.003158,-0.23642978897619996,0.8127317518127483,0.10837959667095057,0.5213654356643651
367,9.166168212890625,0.5023,0.0835,0.2995,-9.52,-0.491,2.0,0.009668,-0.014751,0.006069,-0.24300356517931426,0.8052645391045001,0.11119055966704786,0.5292777614938006
368,9.196796417236328,0.5015,0.0813,0.3011,-9.527,-0.535,1.983,-0.000594,-0.011488,0.011533,-0.24869858979976917,0.7980658000013037,0.10603605524994061,0.5385130873868498
369,9.21968150138855,0.502,0.0819,0.2982,-9.497,-0.494,1.984,-0.007569,-0.00945,0.016328,-0.25245760470266454,0.7911811359829928,0.09257154663617462,0.5492978032414118
370,9.250864505767822,0.5002,0.0824,0.2974,-9.494,-0.434,1.959,-0.008637,-0.010891,0.009438,-0.2539803802442674,0.7841676149900906,0.08065996573669387,0.5604186720471452
371,9.264103174209595,0.5015,0.0832,0.2998,-9.517,-0.369,1.949,0.002216,-0.010418,0.004587,-0.25418372966224895,0.7793784054234785,0.07466845126700122,0.5677891819328122
372,9.291686773300171,0.5007,0.0816,0.3003,-9.512,-0.419,2.009,0.005577,-0.009901,0.001723,-0.25266693703697796,0.776574194760436,0.07792273448245066,0.5718566135066638
373,9.31583285331726,0.5023,0.0813,0.2998,-9.472,-0.452,1.994,0.000495,-0.009489,-0.003286,-0.24772820755681652,0.7760134874759969,0.0839460710064858,0.57392234631403
374,9.340660095214844,0.5023,0.084,0.2995,-9.471,-0.46,2.026,0.003795,-0.008378,-0.008534,-0.24223968007367408,0.7767536556539637,0.09317854921646557,0.5738392229465691
375,9.366028070449829,0.5031,0.0819,0.2985,-9.534,-0.438,1.99,0.002883,-0.007029,-0.012391,-0.23371919287287346,0.7786028602371686,0.10135173423010262,0.5734812559115625
376,9.390077352523804,0.5023,0.0819,0.2974,-9.505,-0.43,1.96,0.011242,-0.006893,-0.01098,-0.22919127828158692,0.7794367411312949,0.11495805967842919,0.5716068308280173
377,9.425136804580688,0.502,0.0827,0.2985,-9.504,-0.42,2.006,0.014734,-0.004297,-0.014616,-0.22590906848786832,0.7796742520321858,0.1313290914390255,0.5690569595697743
378,9.448283195495605,0.502,0.0829,0.3001,-9.488,-0.45,2.035,0.012663,-0.00595,-0.019963,-0.21987690499504564,0.7796363724125005,0.1511325613164158,0.5665511648308706
379,9.465219497680664,0.5025,0.0832,0.2987,-9.476,-0.421,2.051,0.017174,-0.00682,-0.020353,-0.2135956373486926,0.7777348474079816,0.17253353844089,0.5654534365851492
380,9.490472078323364,0.5023,0.0819,0.2968,-9.518,-0.472,1.984,0.017007,-0.00676,-0.021696,-0.20817745581771588,0.7735820860513631,0.1963868611704374,0.5653893382345546
381,9.529958009719849,0.5023,0.0835,0.3001,-9.516,-0.454,2.004,0.025671,-0.006021,-0.024807,-0.20471792661371463,0.7657406974423726,0.22362087958674923,0.5672084775603227
382,9.543668270111084,0.5012,0.0854,0.2998,-9.488,-0.494,2.041,0.012624,-0.006126,-0.026426,-0.20072608396100125,0.7556516897060684,0.24799401707178967,0.5720127013962556
383,9.565993785858154,0.5031,0.0835,0.2979,-9.446,-0.439,2.061,0.022067,-0.007541,-0.030793,-0.195583780736965,0.7430512555936718,0.2701557137510836,0.5802048832963622
384,9.58971118927002,0.5031,0.0849,0.2952,-9.524,-0.46,1.997,0.019613,-0.006788,-0.038589,-0.19301152233753516,0.7257712898521421,0.29366271754634676,0.5914091607293548
385,9.623689651489258,0.5026,0.0865,0.2988,-9.52,-0.46,1.963,0.025352,-0.007236,-0.046716,-0.19545264544835017,0.7029951879544196,0.316062027808434,0.60638339660465
386,9.639569282531738,0.5028,0.0867,0.2982,-9.535,-0.458,2.015,0.043674,-0.007908,-0.047218,-0.2099583271087815,0.6752847549195284,0.33737377722283723,0.6213589422333516
387,9.664473295211792,0.5026,0.0868,0.2977,-9.488,-0.41,1.994,0.052239,-0.007098,-0.051628,-0.23675089659188073,0.6458014360081531,0.3593910494261759,0.6306564768597085
388,9.689935207366943,0.5026,0.0873,0.2977,-9.439,-0.441,2.027,0.068535,-0.002312,-0.058586,-0.27444959107318223,0.6135963039803674,0.382769762314232,0.6337699162624415
389,9.717604160308838,0.5031,0.0903,0.2958,-9.429,-0.466,1.853,0.073798,-0.007462,-0.067968,-0.32165647110567963,0.5812224651290928,0.4031135947810115,0.6294576954234749
390,9.760016918182373,0.5018,0.0905,0.298,-9.42,-0.461,1.987,0.110311,-0.005011,-0.076349,-0.3807745875521667,0.5474417576301605,0.4286261002322493,0.6095883050690621
391,9.76380968093872,0.5047,0.0914,0.2961,-9.448,-0.801,2.099,0.058108,-0.01555,-0.068414,-0.43680151645464727,0.5256164405146566,0.4501372929546561,0.5747244645698293
392,9.789584636688232,0.5023,0.0917,0.294,-9.396,-0.712,1.953,0.011175,-0.017572,-0.047916,-0.45091875996603603,0.5349982385753684,0.45020006528944556,0.5547693735646593
393,9.815369606018066,0.5031,0.0927,0.2975,-9.374,-0.685,1.69,0.03089,-0.038175,-0.041518,-0.4536380561440184,0.5476702871086868,0.45729555730309024,0.5339948912742715
394,9.839420795440674,0.5026,0.0963,0.2945,-9.441,-0.639,1.876,0.088766,-0.060867,-0.029014,-0.4632996244032804,0.5567621855722759,0.48986021390807005,0.48518686871606687
395,9.867107152938843,0.5037,0.0946,0.2953,-9.537,-0.831,1.931,0.101293,-0.077107,-0.000881,-0.4875565658380119,0.5591044993897911,0.5278940957011505,0.4135439246249422
396,9.889002561569214,0.5031,0.0936,0.2932,-9.46,-0.653,2.166,0.09013,-0.065797,0.021997,-0.5279338036871699,0.5646965536210083,0.5336641530931016,0.34293771002381035
397,9.914231538772583,0.5039,0.0963,0.2916,-9.399,-0.997,2.079,0.052428,-0.06721,0.044029,-0.5848242442307967,0.5639683408754602,0.5022188749317706,0.2961359747013601
398,9.93968939781189,0.5029,0.0955,0.2929,-9.525,-0.781,2.115,-0.088837,-0.051669,0.071227,-0.6262728296472463,0.5710967290825721,0.4204452936248988,0.32381572529062114
399,9.965301990509033,0.505,0.0911,0.2921,-9.358,-0.675,1.914,-0.112967,-0.065295,0.070723,-0.6435460306711888,0.5665621781137393,0.3180225342304168,0.40462015824725805
400,9.995725154876709,0.5037,0.0914,0.2915,-9.677,-0.407,1.973,-0.192335,-0.09762,0.085586,-0.6242655855261234,0.5357196879785662,0.19485756128084925,0.53416048660637
401,10.01385498046875,0.5044,0.0903,0.2902,-9.43,-0.344,2.191,-0.173277,-0.078039,0.081676,-0.5474353201631565,0.47554542261155835,0.09887416490664866,0.6814653481909919
402,10.03946042060852,0.5039,0.089,0.2896,-9.38,-0.618,2.215,-0.111945,-0.082483,0.077816,-0.43567221883071694,0.3839990365415717,0.08241729060077893,0.8099023693534247
403,10.067190170288086,0.5055,0.089,0.2878,-9.475,-0.817,2.181,-0.169331,-0.085739,0.095226,-0.25002838693450147,0.30468933324322856,0.12765851555996033,0.910139285680909
404,10.088377952575684,0.5049,0.0863,0.2893,-9.398,-0.321,2.211,-0.076788,-0.074352,0.091453,-0.025081731564706444,0.2898890915629674,0.2258542436664934,0.9296908528926966
405,10.115468978881836,0.5049,0.0871,0.2885,-9.494,-0.511,2.203,-0.098983,-0.061736,0.093205,0.18195045316777458,0.36103272020136057,0.35403568970659205,0.8433315705877643
406,10.153714895248413,0.5055,0.0836,0.2877,-9.463,-0.052,2.366,-0.091606,-0.07125,0.060503,0.32756840036276536,0.4665272083132913,0.3992354144332179,0.7180963659910296
407,10.164971590042114,0.5075,0.0806,0.2845,-9.424,-0.292,2.5,-0.067921,-0.073864,0.018284,0.40083346188629365,0.5215694382712258,0.41569256822285516,0.6280903960561521
408,10.188668727874756,0.506,0.0825,0.2853,-9.532,-0.25,2.55,-0.120136,-0.055363,-0.006526,0.46039273521901863,0.4945577829232653,0.4024203236352508,0.6176641578016933
409,10.215852499008179,0.506,0.0831,0.2839,-9.451,-0.386,2.549,-0.10057,-0.027916,-0.038089,0.48796403771393004,0.38291138039442907,0.3604429345195401,0.6966712737132871
410,10.238576412200928,0.5068,0.0822,0.2845,-9.592,-0.301,2.477,-0.187897,-0.007726,-0.045601,0.46350662960644734,0.22381816104371866,0.23504277503070284,0.8245131466530695
411,10.265617609024048,0.5063,0.0836,0.2845,-9.361,-0.21,2.351,-0.178838,0.000668,-0.068076,0.3542818015306814,0.06996707792726388,-0.002675843253826353,0.932513728034808
412,10.291064739227295,0.5052,0.0841,0.2845,-9.433,-0.589,2.201,-0.184084,0.004303,-0.081558,0.14697490405040714,0.010151421001994801,-0.3250854654046987,0.9341385156461671
413,10.315637826919556,0.5073,0.0836,0.2858,-9.468,-0.562,2.34,-0.195923,0.029859,-0.075976,-0.04004944327278163,0.11582049273360981,-0.6253733078400702,0.7706425120622746
414,10.340637922286987,0.507,0.0858,0.2856,-9.261,0.118,2.515,-0.119496,0.078991,-0.108425,-0.10666437817147013,0.3970680017239612,-0.7949357785517355,0.4461354283337963
415,10.37273097038269,0.5063,0.0876,0.2886,-9.196,-0.316,2.502,-0.051083,0.07014,-0.162657,0.08307054822475991,0.7584297825707773,-0.6402840022732966,0.08899407485990468
416,10.401273488998413,0.5068,0.0879,0.2878,-9.28,0.02,1.995,-0.054967,0.070602,-0.175608,0.5341352722032906,0.8213142472455232,-0.19563957583564434,0.04321544430739699
417,10.414420127868652,0.5058,0.0912,0.287,-9.597,-0.988,1.963,0.044801,0.037911,-0.195356,0.7715398217936507,0.459435930729031,0.08053107015637609,0.43261955073856717
418,10.439491748809814,0.5058,0.0936,0.2865,-9.524,-1.218,1.962,0.009157,0.037252,-0.184846,0.5406876039645001,0.07979399488683425,-0.10599296629962776,0.8306956869962271
419,10.465480327606201,0.5055,0.0982,0.287,-9.492,-1.276,1.952,-0.010989,0.041766,-0.162299,0.11065381325497009,0.07063279866233867,-0.514715284771587,0.8472513894870659
420,10.489741563796997,0.5042,0.0993,0.287,-9.403,-0.96,2.083,-0.066415,0.030971,-0.152165,-0.12591546438156595,0.38107009861400637,-0.7512208783311086,0.524021056572466
421,10.516460180282593,0.5053,0.0998,0.2892,-9.257,-0.774,2.067,0.003155,0.02925,-0.160581,-0.017125173339213796,0.7621592480420513,-0.6332503568787822,0.13346907722379686
422,10.541192531585693,0.5043,0.1047,0.2868,-9.316,-1.019,2.074,0.085583,0.023972,-0.147971,0.2907178566831782,0.922083469301985,-0.2554156847748653,-0.002833975395224911
423,10.577086925506592,0.5045,0.1055,0.2871,-9.312,-1.169,2.169,0.097246,0.014204,-0.128304,0.541152029116189,0.8258572555995333,0.09842879307779698,0.12420164028822928
424,10.594626426696777,0.5048,0.105,0.2868,-9.419,-1.141,2.137,0.06884,0.01095,-0.101016,0.6548202067654012,0.5961795238466723,0.28829020842131386,0.36423787266849095
425,10.615383863449097,0.5045,0.1066,0.2876,-9.446,-1.473,1.964,0.079769,-0.001181,-0.07121,0.6285839236698685,0.39262884189355685,0.34659507388303373,0.5749753891925563
426,10.640356302261353,0.5051,0.1093,0.2869,-9.436,-1.304,2.094,0.06298,0.014649,-0.027943,0.5679994668349221,0.2877692784366599,0.34934173407451874,0.6874051213782865
427,10.673056840896606,0.5053,0.1096,0.2874,-9.344,-1.291,2.254,0.065022,0.010494,0.015326,0.531119197412645,0.2946773429248638,0.3761777140573486,0.6996913527785504
428,10.694092273712158,0.5035,0.1082,0.2871,-9.473,-0.7,2.16,0.00856,0.002784,0.024152,0.5318137688100218,0.358541122010001,0.4081215183318907,0.6496608387507764
429,10.716954946517944,0.5051,0.1074,0.2879,-9.379,-0.399,2.282,0.028082,-0.01004,-0.045264,0.5091218912570576,0.3231707049434706,0.41215492031173645,0.6829962788859125
430,10.740918159484863,0.504,0.1118,0.2872,-9.351,-0.836,2.355,0.052427,-0.004209,-0.105862,0.38030814513066785,0.1337345519837811,0.3363802277371196,0.8510752767766736
431,10.770854234695435,0.5056,0.112,0.2861,-9.433,-0.836,2.36,0.007557,0.010933,-0.1446,0.05849422527327698,-0.04303009082988334,0.054610516356912,0.9958637097495233
432,10.800999402999878,0.504,0.1142,0.2883,-9.468,-0.578,2.255,0.0174,0.020711,-0.196826,-0.41563307332364063,0.09672163644104313,-0.3868970036689596,0.8174379376782638
433,10.815583944320679,0.5046,0.1161,0.2877,-9.681,-0.647,2.202,0.035761,0.023207,-0.253043,-0.5371836914770578,0.678435935563492,-0.4707969284931729,0.171780717976625
434,10.841062784194946,0.5036,0.1213,0.2867,-9.52,-1.197,2.29,-0.006996,0.039264,-0.276712,0.13521699321435826,0.9485477729783871,0.2278394586843165,-0.1733858938617789
435,10.865432739257812,0.5036,0.1269,0.2878,-9.268,-1.458,2.345,-0.049348,0.058083,-0.277696,0.5467892883442163,0.2064273115415091,0.6403163949040371,0.4984015987322545
436,10.891570329666138,0.5015,0.1261,0.2889,-9.507,-1.318,2.167,-0.075901,0.068642,-0.26402,-0.14685899679015288,-0.29595338162773044,-0.07107247782817552,0.9411656250948949
437,10.915600776672363,0.5023,0.1307,0.2884,-9.614,-1.32,1.944,-0.082769,0.075215,-0.253963,-0.6699266448210333,0.3331423746094698,-0.613194876498759,0.25339000026454955
438,10.948204517364502,0.4995,0.1372,0.2903,-9.465,-1.204,2.051,-0.043487,0.086349,-0.279287,-0.029254084387243008,0.9177297861615356,0.013856227097345856,-0.39588412838757897
439,10.973847389221191,0.5005,0.1377,0.292,-9.468,-1.494,2.281,-0.029528,0.10488,-0.30449,0.6478645780002913,0.21514702387986098,0.6927500224785972,0.23255247374312385
440,10.989365339279175,0.499,0.1432,0.292,-9.175,-1.781,2.488,-0.122984,0.115175,-0.328271,-0.1762432399355781,-0.48188955741190015,-0.14543768554122383,0.8459129118643275
441,11.01598596572876,0.4974,0.1445,0.296,-9.64,-1.6,2.487,-0.242147,0.112379,-0.336281,-0.5871280731234898,0.4962741498045349,-0.5925161809143307,-0.24065986233848874
442,11.04301118850708,0.4971,0.1502,0.2956,-9.95,-1.395,2.227,-0.324289,0.142977,-0.365397,0.6175311021401635,0.4278692243536627,0.5913756248271339,-0.29301558849465215
443,11.064892292022705,0.4972,0.1548,0.2972,-10.638,-0.318,2.107,-0.41435,0.174352,-0.460682,-0.198516967377811,-0.6857226903893004,-0.19297110756628288,0.6731549280760105
444,11.092580318450928,0.4948,0.1583,0.2994,-11.034,-0.995,1.985,-0.442436,0.252558,-0.614336,0.051996318665510105,0.5887136096318416,0.20341782379579446,-0.7805983971554551
445,11.11508560180664,0.4922,0.1664,0.3035,-11.607,-1.565,1.821,-0.478997,0.340987,-0.697786,-0.6128728178411437,-0.6750096594608881,-0.19532718224098305,0.3613809079956353
446,11.144087314605713,0.4883,0.175,0.3095,-11.828,-1.149,1.992,-0.531609,0.380052,-0.74953,0.18395164063020256,-0.06037693165660027,0.9541240987891422,-0.22839357290212542
447,11.164340019226074,0.4863,0.1831,0.313,-11.967,-0.955,1.766,-0.375509,0.321635,-0.778492,-0.9562220031400211,0.08324594991933085,0.17306424274772242,-0.22081295345851273
448,11.195005655288696,0.4845,0.1901,0.3169,-11.828,-1.097,1.818,-0.426005,0.247121,-0.762478,-0.5124714332998228,-0.0006693494155138313,0.8525123932434926,0.10293299465787117
449,11.228169202804565,0.4824,0.1976,0.3215,-11.46,-1.167,0.82,-0.549831,0.247693,-0.750051,-0.5483109707687176,0.27595147727217983,0.7487765020667879,0.2500792104086095
450,11.24001431465149,0.479,0.209,0.3264,-10.847,-0.608,0.766,-0.524512,0.239854,-0.771175,-0.7383759147934773,0.14590105502724915,0.16296553130194044,0.6379311296702078
451,11.273229598999023,0.4775,0.2176,0.3281,-11.457,-1.222,0.797,-0.441893,0.195668,-0.818037,-0.20375039670651118,0.906498049812862,0.1979725850277706,-0.31233622445185494
452,11.290799856185913,0.4752,0.229,0.3282,-13.103,-2.286,1.51,-0.516146,0.141997,-0.935656,0.6640907315491424,-0.2721912210668361,0.6537987050476713,0.23967205244387108
453,11.31698203086853,0.4724,0.2404,0.3332,-12.207,-1.08,2.76,-0.454703,0.190633,-0.954283,-0.3288615220177765,-0.8747685539141761,-0.3546868510611575,0.02876306839287089
454,11.351104974746704,0.4688,0.2541,0.3389,-13.521,-3.584,3.337,-0.671874,0.135562,-1.252366,-0.2704236644663872,-0.5555974267688151,0.12966367442819438,-0.7754804140648693
455,11.365387439727783,0.4667,0.2693,0.3447,-14.134,-8.104,3.687,-1.351822,0.096047,-1.715274,-0.9188313073920245,-0.20746836673912267,-0.13844234062025843,-0.3058424818144927
456,11.389227867126465,0.4579,0.2844,0.3532,-14.067,-8.967,3.532,-1.986866,0.017535,-2.148525,0.7549194536468018,0.13312131872048444,0.03517750876867565,-0.6412003398974172
457,11.432145595550537,0.4501,0.297,0.3656,-14.053,-5.955,2.034,-2.116969,0.222712,-2.334169,-0.2417791140979221,-0.0184396024142987,0.2379884316963641,-0.9405128108790075
458,11.439129114151001,0.4371,0.3161,0.3832,-11.997,-4.313,0.452,-1.791279,0.484853,-2.385112,0.811716247254669,-0.46772092136083915,-0.21837781144334562,0.27324898011407
459,11.465870380401611,0.4245,0.3289,0.4011,-9.905,-2.906,-0.742,-1.104214,0.516299,-2.193861,0.7375795176638816,-0.25776258189193635,0.34087135097762733,-0.5228208379376299
460,11.491182804107666,0.4112,0.3423,0.4121,-7.494,-2.34,-0.9,0.02717,0.489926,-1.941536,0.21228771815524394,0.1598335585417383,0.4810102095400543,0.8354737198754711
461,11.534857988357544,0.4024,0.3607,0.4117,-4.923,-3.921,-0.491,1.06835,0.046009,-1.64599,-0.749575362752341,0.5931431337345926,0.12123635456474945,0.2676186555344264
462,11.538435459136963,0.3948,0.3827,0.4005,-4.142,-3.465,-0.382,1.619424,-0.039772,-1.042214,-0.6138046528606285,-0.47856696389038256,-0.44418102131191306,0.4437575120555037
463,11.571133375167847,0.3959,0.3937,0.389,-3.045,-3.435,0.328,1.67935,-0.047617,-0.358585,0.3239546579811513,-0.3780535283910096,0.25687184867224067,0.8283391591631585
464,11.591320753097534,0.4004,0.3976,0.378,-2.38,-2.675,0.947,1.480914,-0.078724,0.303158,0.5021508875207397,0.1953964518473422,0.8409366649225821,0.04990228808870209
465,11.620208740234375,0.4086,0.3979,0.3654,-2.019,-2.965,1.226,1.164877,-0.166604,0.875673,0.2870154037708271,0.7010172992219794,0.07472871332591591,-0.6485464698804888
466,11.649413108825684,0.4258,0.387,0.3533,-2.178,-1.623,0.705,0.830667,-0.148753,1.518032,0.11933732069314927,0.6598180946327566,-0.6969745860938289,0.2542146971052523
467,11.66541862487793,0.4435,0.3689,0.3439,-2.221,-2.971,0.714,0.735043,-0.205465,1.973802,0.511619806688526,0.8122797134901953,0.2012008269358546,0.19484626682749015
468,11.69184947013855,0.4638,0.3466,0.3322,-3.162,-2.223,0.526,0.771497,-0.137791,2.416093,-0.3339316702461783,-0.0803316156940746,-0.40730005846804324,-0.8462524053132764
469,11.72366976737976,0.4846,0.3191,0.3243,-3.578,-3.396,0.486,0.838793,-0.109243,2.604635,0.4277239570576286,0.13024839634741187,0.012235841860926383,-0.8943924507630001
470,11.740670919418335,0.5082,0.2834,0.315,-4.703,-2.274,0.263,0.964587,-0.114114,2.722268,-0.7617177117369964,0.24153840223342912,0.29696896256496,0.5227377575283497
471,11.778430700302124,0.5298,0.2532,0.3028,-5.303,-5.015,0.982,1.461897,-0.120864,2.665567,-0.5770938637909326,-0.5387527991471596,-0.32963038417779755,0.5177372920823361
472,11.790330648422241,0.5464,0.2206,0.291,-6.286,-5.896,1.676,1.34322,-0.017744,2.595869,0.4265360975645733,0.5767908440724312,-0.4402912395096692,0.5399286101695633
473,11.815129518508911,0.5619,0.1876,0.2832,-7.285,-6.985,1.856,1.114971,0.038339,2.32352,-0.6481134658853542,-0.24801579252877376,-0.6469622249635203,0.31603319677630276
474,11.840179443359375,0.5756,0.1538,0.2782,-7.688,-7.789,1.713,0.917074,0.066507,1.909102,0.2003825070665119,-0.35889817491836384,-0.5316515927538089,-0.7405305765627407
475,11.864827871322632,0.5854,0.1281,0.2745,-8.275,-8.399,2.01,0.782603,0.096789,1.411125,0.22083745015254588,-0.5296353288506671,-0.8169971481517398,-0.056858587348715836
476,11.910781860351562,0.5916,0.1111,0.2701,-8.644,-10.962,3.136,0.550599,0.075133,0.743072,0.573627591026071,0.5407251533715901,0.02630503572789486,-0.6147159835405706
477,11.91445517539978,0.596,0.1057,0.2622,-17.009,-26.156,5.314,-0.306217,-0.647462,-0.991544,0.18163941362633956,0.4717354073379917,-0.7514710436843123,-0.42398596602381655
478,11.955550909042358,0.5954,0.1253,0.2543,-11.818,0.813,-6.593,-1.374356,0.572112,-1.087998,0.5526426098085173,-0.4597427336309351,-0.599739033194453,-0.3514766802514341
479,11.965511322021484,0.5938,0.1339,0.2617,-6.938,5.793,-1.002,-0.970077,0.245279,-0.847853,-0.04323519424431965,-0.640029756018945,-0.31084965823132227,-0.7013309627889359
480,11.991869449615479,0.5947,0.148,0.2624,-5.264,-4.724,5.301,0.975964,-0.178351,-1.100912,0.6782864514005033,-0.14829134376362108,0.2510772935979447,-0.6744607919299859
481,12.015421390533447,0.5937,0.1635,0.2574,-12.058,-7.016,-0.77,0.335085,0.029621,-1.014396,0.429900901478674,-0.5902094984004439,0.38428876771374454,0.5649425686870939
482,12.040443897247314,0.5928,0.1792,0.2573,-11.411,-2.049,3.597,-0.012478,0.169645,-0.809202,-0.8951053939045959,0.18474298222626218,-0.4045925415793612,0.03100386458811827
483,12.065700769424438,0.5925,0.1895,0.2598,-7.442,-5.343,1.818,-0.241402,0.192396,-0.637899,-0.2548877094143113,0.6638859872248832,0.6510259789238187,-0.26542951290738415
484,12.090501546859741,0.5905,0.1963,0.2612,-7.85,-4.47,-0.23,-0.052785,0.217391,-0.521424,-0.2430715892611977,0.12909079704812265,0.8373900461823123,0.47226018164386985
485,12.128528356552124,0.5913,0.2027,0.2634,-8.959,-5.742,2.749,0.15629,0.108198,-0.309714,-0.6123652189046408,0.04040268152204374,0.6435513527774239,0.4574036711046896
486,12.143453598022461,0.5903,0.2076,0.2661,-9.482,-5.642,1.922,0.087731,0.151102,-0.067109,-0.7501636923479452,0.01470351995848962,0.5724853706544601,0.33060360187141513
487,12.167196035385132,0.5905,0.2081,0.2672,-8.796,-4.812,2.056,0.067331,0.208433,0.134129,-0.8417175573164927,-0.02814798118233733,0.4652231156721922,0.27255586125558495
488,12.189576625823975,0.5897,0.203,0.2682,-8.704,-4.536,1.881,0.110022,0.185073,0.325933,-0.9148085191614305,-0.13336695905893287,0.27024522507889764,0.26889802123314266
489,12.227267265319824,0.591,0.1981,0.2717,-8.865,-4.488,1.745,0.164138,0.141694,0.435547,-0.8349898434381601,-0.37927330589782016,0.07774810905330347,0.39102295626611383
490,12.241702318191528,0.5907,0.1907,0.2727,-9.033,-4.278,1.644,0.138392,0.100468,0.531114,-0.40298496180431087,-0.6625375847697084,0.07744305938088558,0.6266176201487063
491,12.28076982498169,0.5925,0.1837,0.2751,-8.945,-3.688,1.163,0.042824,0.047261,0.588084,0.3789716152673398,-0.6083399715259883,0.3327034755137076,0.6128714312533445
492,12.292673587799072,0.5929,0.1764,0.2742,-9.31,-3.441,0.94,0.100103,-0.039984,0.602608,0.9261080251656183,0.075825547543871,0.3685629762658868,-0.02712461224685021
493,12.314888715744019,0.5934,0.1666,0.2763,-8.896,-4.012,1.486,0.034444,-0.099585,0.650505,0.4734267331077945,0.5519247081905156,-0.5055089527587162,-0.4644426159909114
494,12.339643716812134,0.5947,0.1569,0.2749,-9.145,-3.629,1.862,-0.074454,-0.105443,0.707037,0.360345162458941,-0.06002570895385012,-0.9289793230242893,0.05954574334375238
495,12.367057800292969,0.5957,0.1485,0.2732,-9.253,-2.981,2.332,-0.125044,-0.054276,0.746773,0.7073557089043998,-0.0996103665083175,-0.6955327397008182,-0.07720028477089025
496,12.391494750976562,0.5969,0.1374,0.2736,-9.199,-2.113,2.108,-0.107439,0.033806,0.734623,0.4008072443057745,-0.34731514961874893,-0.8477393599375685,0.007982316077357304
497,12.421393156051636,0.5974,0.1271,0.2762,-9.301,-2.119,1.444,0.074787,0.066144,0.679218,0.8314614929871954,-0.5019374249436753,-0.07201568871866718,0.22703380298711512
498,12.450144052505493,0.596,0.1184,0.2775,-9.39,-2.163,1.246,-0.022865,0.043913,0.624964,0.6065325858925329,0.4756588200729187,0.14869369368928012,-0.6194813109322946
499,12.463729619979858,0.596,0.1097,0.2768,-9.219,-1.865,1.783,-0.138882,0.004508,0.56366,-0.6326986702089124,0.29151801715235937,-0.6517368603086489,-0.2999144933251065
500,12.490111589431763,0.5954,0.1016,0.2781,-9.316,-1.043,1.842,-0.220782,0.018314,0.456313,-0.4587837164675368,-0.5091218898337331,-0.15900461770254462,0.7106545815975794
501,12.527617931365967,0.5959,0.0942,0.2815,-9.47,-0.56,1.469,-0.216079,0.004341,0.296905,0.14063307144312243,-0.30407601100435316,0.5831968697368485,0.7400280601958924
502,12.538973093032837,0.5959,0.0923,0.2807,-9.287,-1.393,1.072,-0.09885,-0.026155,0.133336,0.35058097958513207,0.12701220405747085,0.8162212397801422,0.44129781837820165
503,12.566237688064575,0.5959,0.0913,0.2783,-9.045,-0.997,1.75,-0.15318,-0.013333,0.003233,0.38512072974129474,0.28984231447561715,0.8059804887672221,0.3436115655642282
504,12.590892791748047,0.5964,0.0918,0.2772,-9.456,-1.122,2.151,-0.111188,-0.005477,-0.133271,0.39480222086707456,0.08307302937209454,0.7387296886599515,0.5399152945432643
505,12.62838101387024,0.5959,0.0939,0.2824,-9.793,-1.192,1.855,-0.136424,0.023989,-0.265217,0.05758808329077493,-0.3516346109374373,0.3026551643184069,0.8839890070386452
506,12.645899057388306,0.5964,0.0967,0.2783,-9.86,-1.183,1.438,-0.159199,0.007506,-0.406318,-0.6770611122093555,-0.1303186892692697,-0.5625254733507615,0.4562569247611167
507,12.66805624961853,0.5967,0.1032,0.28,-9.332,-1.995,1.732,-0.178996,0.036628,-0.51797,-0.10022860495457869,0.6998155438619229,-0.1003034917924921,-0.7001083065157372
508,12.689510822296143,0.5962,0.11,0.279,-9.723,-2.269,1.657,-0.292016,0.047835,-0.536901,0.6764816744766583,-0.38439164693495664,0.6281636863968119,-0.005097936470384978
509,12.71540379524231,0.5949,0.1167,0.282,-9.912,-2.411,1.85,-0.445105,0.057411,-0.514401,-0.4140401935845934,-0.8459629095801667,-0.3241793598285744,0.08846025306445089
510,12.739616870880127,0.5942,0.1237,0.2837,-10.699,-3.342,1.761,-0.516028,0.076854,-0.411893,-0.534291144360589,-0.11401729873974845,-0.11746453833616899,-0.829297962664454
511,12.777480363845825,0.5939,0.124,0.2869,-11.836,-2.777,1.338,-0.770906,0.161817,-0.339583,-0.11867616953045684,-0.19005266469735976,0.7922892679760383,-0.5675153454110337
512,12.789825916290283,0.5911,0.1267,0.2899,-12.318,-1.858,1.479,-0.556446,0.282515,-0.383139,-0.6707886940309589,-0.45962675598033903,0.5634009779642617,0.1461680921957464
513,12.827763795852661,0.5882,0.1298,0.2985,-12.564,-1.742,2.753,-0.682604,0.264685,-0.440396,-0.7852901894564206,0.2369017898007117,0.5674577193026143,-0.07203191748519466
514,12.839984893798828,0.584,0.1298,0.3042,-14.255,0.104,2.743,-0.774948,0.209336,-0.556276,-0.575557625019776,0.41226344486593897,0.5735630118332711,0.41206521785466294
515,12.865298748016357,0.5782,0.1319,0.3098,-14.779,0.671,2.156,-0.812131,0.198789,-0.678786,-0.101324786022382,0.7882183916765486,0.4523381160725333,0.4047657143438718
516,12.891984462738037,0.5724,0.1332,0.3165,-13.568,2.418,1.185,-1.018255,0.273048,-0.838807,-0.0027612501221291816,-0.06396690993484994,-0.1728077185437874,0.9828723733745094
517,12.927972555160522,0.5667,0.1337,0.3224,-13.077,2.403,1.271,-0.979792,0.212883,-1.048646,-0.24586298322963387,0.6837326071055262,-0.35028435956164866,-0.5910685094848065
518,12.947942018508911,0.5581,0.1415,0.3273,-15.066,-0.034,2.984,-0.79142,0.029633,-1.415581,0.025691155453839175,-0.02287450695202852,0.992289140033406,-0.11907553919639388
519,12.96442985534668,0.55,0.1501,0.3329,-14.161,0.469,4.353,-0.161411,0.213233,-1.533563,-0.6853440882932335,0.25835999702283013,0.6757794853351253,-0.08291971888563565
520,13.015536546707153,0.538,0.1603,0.337,-12.99,-4.22,3.643,-0.057737,0.207889,-1.707504,0.5233812269378696,0.20336124151681484,0.8075435593111541,-0.18052616583980957
521,13.017899990081787,0.5242,0.1708,0.3405,-14.591,-10.874,2.196,-1.078012,0.17129,-2.173997,0.6895683972874352,-0.5247272754401313,-0.49800322814527165,-0.0339042272954693
522,13.040615558624268,0.5018,0.1859,0.3499,-13.929,-7.07,2.005,-1.79115,0.276635,-2.416015,0.6930800002444855,-0.23570814807930598,0.672810517486517,-0.10680725513584477
523,13.079812288284302,0.4822,0.1939,0.36,-11.371,-3.516,0.457,-1.389151,0.425042,-2.227799,0.5034280484171673,0.2910373923965225,-0.654056704947751,0.4838049844790827
524,13.089516162872314,0.4605,0.2037,0.3718,-9.384,-2.851,-0.8,-0.581844,0.515194,-1.956644,0.7707215853080471,-0.34698026113802977,0.3988490398278345,0.3556857879494904
525,13.131812810897827,0.4384,0.2155,0.378,-6.169,-4.722,-0.865,0.572576,0.291751,-1.790648,-0.4572327861332665,-0.4105550627751547,0.7688504882140683,0.17678135220516933
526,13.139455318450928,0.4184,0.229,0.3774,-4.563,-4.188,-0.356,1.571153,-0.15556,-1.2325,-0.6850124942599037,-0.4601654265268782,-0.07892715360103308,-0.5592639514232977
527,13.175424337387085,0.4043,0.241,0.3717,-3.337,-2.995,-0.232,1.863175,-0.247493,-0.49481,0.18228375146169212,-0.8691202300650451,-0.1929568672708316,0.417337162277411
528,13.189666986465454,0.3953,0.2429,0.3625,-1.812,-2.724,0.275,1.503277,-0.220811,0.230257,0.9096779637696205,0.07619852809560101,0.404412354648976,0.05595028110109538
529,13.229443311691284,0.3877,0.2421,0.357,-1.022,-2.983,0.636,1.081178,-0.155918,0.99135,0.3631194443019154,0.9213753074116805,-0.13740835442817442,0.01818670380362164
530,13.239736080169678,0.384,0.2321,0.3534,-0.733,-2.196,0.643,0.779257,-0.187195,1.679863,0.14173807853759496,0.5730285701385792,0.17375707037570787,0.7882620474130778
531,13.272453784942627,0.3852,0.2145,0.347,-0.965,-1.773,0.102,0.681767,-0.238611,2.15365,0.45429306162405864,0.505306536362876,0.4152886622260363,-0.6048292697081564
532,13.289373874664307,0.3852,0.1958,0.342,-1.531,-2.049,-0.173,0.833082,-0.295133,2.537327,0.5658908960592137,-0.5368448349225203,-0.36996666696159397,-0.5046679921608277
533,13.314403772354126,0.3861,0.1747,0.3356,-2.542,-2.83,-0.384,1.113297,-0.266065,2.771587,-0.8054932941992301,0.43930909145854985,-0.30033624205884646,-0.2607416669193974
534,13.34284234046936,0.3858,0.1517,0.3335,-3.752,-4.117,0.05,1.291168,-0.170378,2.850276,-0.9601021438761207,-0.08259764497733589,0.060195196715205145,-0.2603037469209624
535,13.36521291732788,0.3823,0.1339,0.3257,-5.165,-6.474,1.279,1.553631,-0.1433,2.744589,0.43054915542529604,0.8897480855575941,-0.040243572214316944,0.14613768817314526
536,13.388854026794434,0.3788,0.116,0.3228,-6.375,-7.364,1.854,1.209949,-0.061645,2.484502,-0.7165727634639475,0.4074851925158149,-0.46304910433118585,0.3256759424951088
537,13.427125692367554,0.3759,0.1027,0.3224,-7.199,-7.952,1.918,0.97007,-0.075633,2.019721,0.0014680712847980198,0.12859396993434696,-0.7095001137678236,-0.6928715784520765
538,13.440396547317505,0.3698,0.0913,0.319,-8.164,-9.462,2.095,0.772638,0.019099,1.5536,0.6743012284509207,-0.19024465259786752,-0.7068424976414596,-0.09746029445614907
539,13.47398829460144,0.3654,0.0872,0.3206,-8.291,-9.765,2.132,0.575626,0.031018,0.916869,0.3058093398303238,0.4732809450172,-0.768989921336937,-0.30189451077881346
540,13.48949146270752,0.362,0.0872,0.3189,-7.673,-9.3,1.965,0.339029,-0.036369,0.242573,0.10908264110286083,-0.31541371617126424,-0.6646228352713832,0.668499552652719
541,13.519428014755249,0.3591,0.0891,0.3184,-6.324,-9.573,4.424,0.152933,-0.270427,-0.35319,0.27000562305382964,-0.22006223752215648,-0.5473362328331526,0.7609813554641587
542,13.547813653945923,0.3571,0.0986,0.3125,-15.945,-7.893,4.615,-0.417403,-0.793728,-1.030818,0.5394838858155259,0.391055950541628,-0.620739398088365,0.4131766936218194
543,13.565580606460571,0.3556,0.1054,0.3147,-12.377,1.642,-6.112,-0.486743,0.906578,-0.889483,0.5803195290936185,0.20339044299380424,-0.7815616427164621,-0.10499033520134243
544,13.593165397644043,0.3528,0.1165,0.3175,-4.826,-2.872,4.418,0.543477,-0.075433,-1.121621,0.7082832540304487,-0.23125270403397075,-0.2386087654548268,0.6228345494472344
545,13.622305393218994,0.3502,0.1284,0.3176,-7.522,-7.406,0.701,0.1729,0.132972,-0.889059,-0.49549053931959525,0.3438004978842891,-0.7928820032756826,-0.08734112422468554
546,13.639994859695435,0.3466,0.1371,0.3184,-10.624,-3.643,2.635,0.004117,0.147181,-0.672063,0.45132556513772365,0.474811411619721,0.5185799432277177,-0.5494853957392674
547,13.665201663970947,0.3435,0.1433,0.3174,-9.212,-5.204,3.274,-0.10357,0.194146,-0.448905,0.26544141195438764,-0.6987105364182763,0.5454698042101472,0.3792191131953783
548,13.695275783538818,0.3427,0.1454,0.3204,-8.891,-4.966,1.716,0.017166,0.35302,-0.229797,-0.6586620368124257,-0.6403686338595682,-0.3145995494180252,0.23899677306798997
549,13.714866876602173,0.3411,0.1487,0.3247,-8.878,-4.35,1.645,0.122775,0.293505,-0.054018,-0.7627135474587317,0.012031903669178612,-0.5070002972952505,-0.401340225194959
550,13.740649223327637,0.3388,0.1465,0.3249,-9.265,-4.274,0.828,0.069474,0.128885,0.093266,-0.5564391041726153,0.34998340075772644,-0.4002531263170014,-0.6385018225620821
551,13.765023231506348,0.3409,0.1476,0.3269,-9.144,-4.106,0.999,-0.047046,-0.061642,0.206795,-0.6529844462370471,0.267942384919983,-0.5593619123755016,-0.4346635967268367
552,13.816315412521362,0.3419,0.1443,0.3258,-8.982,-4.318,1.455,-0.208745,-0.166185,0.346963,-0.6768787608658192,-0.2314737890997254,-0.6646245896228364,0.21570624218423745
553,13.817065000534058,0.3432,0.1397,0.3252,-8.937,-3.798,2.28,-0.300387,-0.185841,0.448913,0.05173891848821108,-0.6286796730079063,-0.12506871662733252,0.7657955139471204
554,13.840924739837646,0.3452,0.1319,0.324,-8.939,-3.218,2.709,-0.338784,-0.097805,0.522305,0.8583299713422129,-0.14181739100488816,0.35575405540334337,0.3414623551261803
555,13.865535736083984,0.3468,0.1251,0.3229,-8.876,-2.422,2.939,-0.191218,0.06397,0.564338,0.8641451008909223,0.4147737345000145,-0.04141720100853505,-0.281958523963628
556,13.889786958694458,0.3467,0.1208,0.3245,-9.18,-2.426,2.321,-0.049444,0.057679,0.559417,0.5395013102803422,0.37030227027125523,-0.686346041429512,-0.31740144336752296
557,13.915635108947754,0.3488,0.1159,0.3261,-8.956,-1.96,2.59,0.116352,0.129739,0.555207,0.5783255000889953,0.0631180872614909,-0.8132782905763588,0.011582101901626882
558,13.94450068473816,0.3503,0.1102,0.3252,-9.447,-2.568,1.181,0.046099,0.098792,0.517203,0.7695929133317583,0.15243802224633876,-0.618574882795815,-0.04306403949126572
559,13.965551853179932,0.3508,0.1056,0.326,-9.372,-2.521,0.432,-0.163687,-0.015901,0.448698,0.4838852788343241,0.26430155521390997,-0.78853825653049,-0.2724098801930506
560,13.991343021392822,0.3503,0.1004,0.3265,-9.799,-1.584,2.106,-0.242566,-0.039336,0.372726,0.11961250226821508,-0.15245468107419,-0.977087211177201,-0.08803977097689064
561,14.01681399345398,0.3531,0.0945,0.327,-9.173,-1.996,3.09,-0.143573,0.021778,0.303663,0.17385932191410575,-0.6096809667868001,-0.725762737098999,0.2670777122113515
562,14.041753053665161,0.3523,0.0931,0.327,-9.168,-2.354,1.959,-0.182204,0.088091,0.275804,0.33986282084628533,-0.7773796790162476,-0.32530243456153274,0.41755529421543836
563,14.077933311462402,0.3531,0.0904,0.327,-9.609,-0.725,1.015,-0.112047,0.062762,0.189273,0.4697498115089303,-0.7640799250088769,0.01638039671017308,0.44186951172192324
564,14.09678864479065,0.3544,0.0882,0.328,-9.009,-0.905,1.055,-0.063108,-0.018526,0.011432,0.5570812177596506,-0.7102906768893794,0.17117103625241153,0.39477607259271397
565,14.117364168167114,0.3552,0.089,0.3278,-9.203,-1.629,2.099,-0.046181,-0.039581,-0.108097,0.5007475739041238,-0.7666521353046496,0.07496532932222844,0.394812069295716
566,14.140813112258911,0.3549,0.0888,0.3259,-9.461,-1.717,2.341,-0.270827,0.006046,-0.193062,0.13680595648291,-0.8648339338621728,-0.322841814427565,0.3593321026131573
567,14.171551942825317,0.3552,0.0915,0.3275,-9.348,-1.169,2.138,-0.336356,0.035838,-0.304618,-0.3438852284103773,-0.5170238589849304,-0.7590288011220433,-0.19571550267852322
568,14.205081701278687,0.3544,0.095,0.3267,-9.54,-1.442,2.042,-0.386158,0.046346,-0.456862,0.025106678897954808,-0.03108505668464498,-0.276062201453059,-0.960308822647443
569,14.215095043182373,0.3528,0.0958,0.3305,-9.608,-2.218,2.275,-0.317591,0.110091,-0.512944,0.3883816556512161,-0.6620622369575955,0.2934304057948938,-0.5698525080258654
570,14.240912199020386,0.3513,0.1026,0.3303,-9.81,-1.982,1.918,-0.307096,0.139186,-0.540846,-0.15912948312038105,-0.8313836620719988,-0.03744213424975415,-0.5311093113704716
571,14.283389806747437,0.3511,0.1063,0.3328,-10.256,-1.301,1.949,-0.196673,0.154723,-0.684455,-0.13269925962831303,-0.7224666981021134,0.15841932722748392,-0.6598000404579547
572,14.295320272445679,0.3498,0.1161,0.3312,-11.407,-1.937,1.618,-0.147479,0.180643,-0.840572,-0.45426411238467,-0.47821511546466966,-0.11423713861404655,-0.7429026152207
573,14.319972276687622,0.3472,0.1229,0.3329,-11.906,-1.79,1.636,-0.288771,0.186149,-0.966277,0.44126293265705685,-0.29041551647199076,0.7146834437219328,-0.4584467551689722
574,14.34102725982666,0.3447,0.1361,0.3357,-12.768,-2.273,1.898,-0.371278,0.149572,-1.028501,-0.48039299465037333,-0.5196852180526197,-0.47980844516710075,0.518588180326911
575,14.365307807922363,0.3424,0.1459,0.3376,-13.207,-2.601,2.638,-0.502177,0.140828,-0.962464,0.14633023828112682,0.8718535682136406,-0.3906728015517557,-0.25658055087132836
576,14.392049551010132,0.3424,0.1553,0.3412,-13.793,-1.901,1.963,-0.60483,0.108723,-0.852337,0.8464168136839049,0.27798266445246644,-0.3045376072593721,0.336988221666321
577,14.4164137840271,0.3409,0.1632,0.3424,-12.932,-1.499,1.161,-0.807989,0.150749,-0.710728,0.7189599846011543,0.0916747187957726,-0.6878580692242869,-0.039288205342829674
578,14.441165208816528,0.3375,0.174,0.3454,-11.341,-0.482,1.03,-1.032882,0.204008,-0.597902,0.81876068986257,-0.4946911161844692,-0.21935671658729644,-0.19181830776016354
579,14.476243257522583,0.3391,0.1807,0.3493,-10.727,-1.575,1.52,-1.105409,0.200516,-0.712726,-0.256973380262864,-0.8261900725199595,-0.5004634273122621,-0.030182839969186775
580,14.489603996276855,0.335,0.1896,0.3555,-12.643,-0.032,1.346,-1.15705,0.047567,-1.072589,-0.45660150995027526,0.5254018402892405,-0.4297567037989262,-0.5751322829329704
581,14.515681266784668,0.3329,0.2018,0.3573,-14.293,-0.504,2.281,-0.748823,-0.062457,-1.297123,0.6572646407498143,0.6633659750243025,-0.2824746517960214,-0.21944668211843776
582,14.541531801223755,0.3299,0.2251,0.3572,-14.392,-3.433,4.456,-0.183825,-0.08752,-1.600365,0.48606376587428096,0.04894944504214088,-0.8311854121593709,0.26547462769092506
583,14.565528154373169,0.3263,0.2467,0.3614,-14.461,-6.851,3.23,-1.347554,0.202322,-1.995385,-0.5542935895073163,0.4526782253557131,-0.5370546933034565,-0.44655716019410907
584,14.590034484863281,0.3178,0.2664,0.3723,-13.296,-9.702,2.758,-1.528623,0.273149,-2.824542,-0.28138194697080116,0.6423946990315031,-0.006512224556779245,0.7128189401990296
585,14.616202116012573,0.3048,0.294,0.3825,-10.452,-6.005,0.113,-1.168533,0.44588,-2.972101,-0.2641135983900339,0.12459750560424593,0.2898088901759454,-0.9114440607726042
586,14.639666080474854,0.2895,0.319,0.3936,-6.719,-4.34,-1.047,-0.589617,0.311324,-2.674671,-0.8733958546307147,-0.25864876529633246,-0.41174097545951105,0.027383689528927044
587,14.676760911941528,0.2786,0.3425,0.4013,-5.416,-2.338,-0.408,0.002606,0.455683,-1.916356,0.4035303376690798,0.3874137754224468,-0.8113584378477622,0.16962110283465165
588,14.688907623291016,0.2701,0.3604,0.402,-4.28,-1.385,0.42,0.501112,0.32734,-1.171379,0.7321040208246042,0.05759454699000705,-0.038533154381140994,0.677659034369721
589,14.717087745666504,0.266,0.3772,0.4015,-2.758,-1.273,0.737,0.921731,0.111169,-0.53857,0.6472257309289042,-0.11159915816629887,0.5658169882994133,0.4984933468682413
590,14.739896059036255,0.269,0.3922,0.3928,-1.207,-1.358,0.609,1.065444,-0.014394,0.226135,0.5898581103841496,0.3154330105012001,0.7409776861960469,-0.05934217774688355
591,14.77086091041565,0.2782,0.3977,0.3859,-0.938,-0.142,0.066,0.847124,0.062554,1.166749,-0.15294690849387993,0.5766023809888102,0.7676887690268528,-0.23407454225146965
592,14.789305210113525,0.2965,0.3937,0.3823,-0.699,0.589,0.38,0.645951,0.025662,2.202073,-0.6464663657812635,-0.42625962963315206,0.5901782650530709,0.2281963661356618
593,14.835347652435303,0.3207,0.3816,0.3802,-1.564,0.606,0.309,0.646818,0.019231,3.07634,0.7087012443873383,-0.09084696344110495,-0.21558542143775677,0.6655916927823494
594,14.83872938156128,0.3556,0.3584,0.3724,-2.993,-0.649,0.88,0.766643,-0.128431,3.69116,-0.768458812742981,-0.20177933418154437,-0.6058624180415518,-0.04107169122089355
595,14.86659026145935,0.3905,0.3285,0.3668,-5.05,-0.995,1.094,0.86569,-0.323906,4.223597,-0.40743119681330375,0.5103493462641983,-0.3817228901010525,-0.6540879144303801
596,14.892820596694946,0.4255,0.2883,0.3578,-7.343,-1.964,1.327,0.773806,-0.462435,4.723001,-0.6103999725575722,0.43470891771495485,-0.5863033571144466,-0.3077148091937365
597,14.920236825942993,0.4569,0.2375,0.3484,-8.907,-2.702,1.389,0.531721,-0.587739,4.995343,0.4848016539074853,-0.4589824121633441,0.5143389194783967,0.5382917216557208
598,14.943736791610718,0.4858,0.1664,0.3388,-10.404,-2.175,1.154,0.38639,-0.653088,5.120639,0.21017936551228378,0.6235120174179745,0.1691737376041565,-0.7337831048431556
599,14.96921181678772,0.5004,0.1001,0.3304,-12.21,-3.262,0.458,0.432914,-0.711786,5.035885,-0.44400116538431045,-0.3814204407404177,-0.717328975328207,-0.377916066974327
600,14.994304418563843,0.5045,0.0329,0.3207,-13.307,-4.641,0.724,0.36961,-0.55389,4.863497,0.4766906275871042,0.4994080717058387,0.49537873375886626,-0.5272167804851541
601,15.01938009262085,0.4969,-0.0286,0.3162,-14.281,-5.214,0.049,0.385742,-0.200316,4.328956,0.5025305060246616,0.7024626061281948,-0.3039535861524765,0.4020218836969343
602,15.045292139053345,0.4778,-0.0872,0.3158,-14.719,-6.003,0.95,0.648503,-0.15966,3.462878,0.27457049367458586,0.5501398197337635,0.3547863401173632,-0.7043322196326981
603,15.07928466796875,0.4643,-0.1222,0.3113,-13.198,-6.107,1.01,0.805367,-0.129488,2.360228,0.03524631571277764,-0.8214878315267826,0.1909678009800193,-0.5361405961787966
604,15.092119216918945,0.4533,-0.139,0.3148,-12.093,-7.714,1.992,0.623823,-0.209062,1.145766,-0.38206570259797146,0.37540028188054897,-0.4840854792420723,-0.6919260625596465
605,15.128315448760986,0.4478,-0.145,0.315,-12.509,-5.84,3.724,0.188821,-0.28522,-0.09854,-0.5562339166904605,0.5089815556898531,-0.5023233426386572,-0.42333540524158025
606,15.139551877975464,0.4512,-0.1336,0.3094,-13.113,0.579,8.232,0.149816,-0.467967,-1.654912,0.7048399654120575,-0.6669181226332268,0.23273625041263685,0.065227897445557
607,15.165320634841919,0.4565,-0.1235,0.3082,-16.377,9.34,-5.242,-1.004779,0.779042,-1.286232,0.08378053375156813,-0.7658315159089277,-0.3253226103710206,-0.5483138796221751
608,15.191874742507935,0.4647,-0.0999,0.3107,-8.193,-0.13,0.636,1.074873,-0.585423,-2.197719,0.09763805957663124,0.23999028971174274,-0.5641524207653372,-0.7839665275448906
609,15.215636491775513,0.4735,-0.0725,0.311,-8.305,-0.893,0.691,1.449174,0.03594,-1.508279,-0.7668490923358796,0.2233874435118937,-0.46327544283042316,-0.3839484128566407
610,15.243225336074829,0.478,-0.0457,0.3132,-10.522,-5.871,6.576,0.736771,-0.505162,-1.474155,-0.440916214080151,-0.8224438957462169,-0.2581397747562997,-0.250085559758614
611,15.265384197235107,0.4852,-0.0294,0.3075,-10.003,-0.742,1.083,-0.037433,-0.034263,-1.244559,-0.08010685496454861,-0.6844101506929312,-0.22712695511441947,-0.6881707518317096
612,15.311725854873657,0.4874,-0.0158,0.306,-10.102,-1.438,1.508,-0.411425,-0.049657,-1.197232,0.12214331752125532,-0.7894669677831532,0.12461627097589403,-0.5884672478330788
613,15.315089464187622,0.489,-0.0028,0.3045,-8.948,0.688,0.019,-0.069459,-0.088366,-1.036568,0.04621311001648775,-0.9540597130661775,0.17805984755324794,-0.23649334674785463
614,15.34033727645874,0.4912,0.0119,0.3015,-9.952,-0.798,0.314,0.244351,-0.271919,-0.991042,-0.11790809051514813,-0.9547380921760282,-0.21901807119112102,-0.16310714892631378
615,15.380162715911865,0.4941,0.0244,0.2989,-9.984,-1.602,1.762,-0.091564,-0.235137,-0.822948,-0.08638252913162052,-0.9050650210743945,-0.3565834658525417,-0.21504324720627682
616,15.39022445678711,0.4937,0.0323,0.2952,-9.287,-0.595,2.978,-0.478613,-0.167313,-0.697317,0.09147763500617352,-0.9637378962875401,0.057403389050541945,-0.24402040996288804
617,15.424767971038818,0.4958,0.0401,0.2926,-9.629,0.474,2.357,-0.432428,-0.10312,-0.636798,-0.5461997206024787,0.22815500224486493,0.21717526806359702,0.776173990227658
618,15.44123101234436,0.4964,0.0496,0.294,-9.686,0.004,2.123,-0.117014,-0.074853,-0.625965,-0.07344813669329378,0.5131841702228123,0.5898690230767922,0.6191138136590377
619,15.475905895233154,0.4985,0.0567,0.2909,-9.628,-1.33,1.691,-0.093536,-0.052141,-0.571454,-0.44823586827485706,0.7541713369643761,0.22828087506875747,0.4221351003779392
620,15.490042209625244,0.4975,0.0632,0.2891,-9.941,-0.689,1.722,-0.241,-0.046479,-0.521107,-0.26225087383501655,0.5103780093378937,0.30885812934247847,0.7585152751897116
621,15.515934944152832,0.498,0.0689,0.2934,-9.353,-1.221,2.401,-0.18364,-0.028748,-0.463707,-0.22950508037770412,0.7105945201538728,0.2111577748936967,0.6307101078229631
622,15.540149450302124,0.4973,0.0746,0.2886,-9.348,-2.111,2.09,-0.285714,-0.023186,-0.33449,-0.15113504877241135,0.7125934288344017,0.10241174428778557,0.6774072902224515
623,15.56499195098877,0.4981,0.0768,0.2881,-9.478,-1.717,1.663,-0.405925,-0.022159,-0.190244,0.09483099917843574,0.7612125421107758,0.006236000383706641,0.6415010986953056
624,15.592082023620605,0.4971,0.076,0.2886,-9.661,-1.322,1.837,-0.453657,-0.038916,-0.123537,0.3634607919693613,0.6281677865117775,-0.130339278959534,0.675509553633557
625,15.614959239959717,0.4981,0.0776,0.2892,-9.656,-0.891,2.031,-0.51309,-0.033006,-0.097821,0.5283436862650309,0.3862368862877161,-0.37158061112314167,0.6584845224392151
626,15.639997959136963,0.4973,0.0789,0.2876,-9.483,0.05,2.306,-0.473783,-0.01735,-0.187909,0.4882494668175116,0.16879181336530774,-0.6924290501097672,0.5036504665513101
627,15.677404165267944,0.4994,0.0814,0.2884,-9.569,0.842,2.151,-0.358333,0.007833,-0.396695,0.4795207462935268,0.36325504730322156,-0.7973020605739447,-0.049143144866552385
628,15.689966440200806,0.4987,0.0857,0.2877,-9.34,0.704,2.508,-0.237363,0.02601,-0.634375,0.8588786742664141,-0.21600979657460864,-0.34079767037576114,0.3154744657505853
629,15.716519117355347,0.4987,0.093,0.2885,-9.849,-0.739,2.288,-0.228365,0.055685,-0.783717,0.4493859729964198,0.49842157000429194,-0.5300998560175162,-0.5182878818559493
630,15.740484476089478,0.4964,0.1061,0.2868,-9.556,-1.144,2.005,-0.279583,0.083655,-0.865602,-0.1959806744943023,-0.4371645266855481,-0.8090044877715263,0.340573766749715
631,15.77872896194458,0.498,0.1169,0.2901,-9.612,-0.694,2.146,-0.181281,0.1088,-0.950455,0.7173502801897843,-0.2630345894366883,0.6010570806773959,0.2344179302849451
632,15.789693355560303,0.4963,0.1274,0.2889,-10.233,-1.482,1.849,-0.089424,0.11435,-1.029183,-0.448089278729501,0.6880931857401654,0.03676609264221714,-0.5695542296019314
633,15.833581686019897,0.4955,0.1402,0.2936,-10.839,-2.248,1.155,-0.201206,0.139682,-1.006912,-0.6295216972006299,-0.3154405469339887,0.3939610441807121,0.5907574711941166
634,15.839128732681274,0.4933,0.154,0.2921,-10.592,-1.862,1.298,-0.329598,0.191809,-1.044333,-0.542224571592691,0.3698943706976691,0.74244283546985,0.13397501463626482
635,15.87126350402832,0.4925,0.1653,0.2957,-11.055,-2.709,1.718,-0.421671,0.237409,-1.063745,-0.37553659919401855,0.4446129483408733,0.7756329443938242,0.24430539168097276
636,15.892001152038574,0.4894,0.1753,0.3006,-12.445,-2.87,1.219,-0.623489,0.318755,-1.006954,-0.8359401621655076,0.24080176634933692,-0.20865465722323834,0.44685768273668197
637,15.915468215942383,0.4874,0.1858,0.3058,-12.861,-2.156,2.006,-0.849992,0.39233,-1.018851,0.6456657356165316,0.023624881079206073,0.7271361284201234,0.23201438229331864
638,15.944263935089111,0.483,0.1974,0.3129,-14.213,0.107,3.398,-0.829713,0.391918,-0.976851,-0.6681131412638541,0.003577614106979987,-0.5682516754275428,-0.4803145474807498
639,15.977594375610352,0.4811,0.205,0.3183,-14.452,0.612,3.182,-0.66993,0.428939,-0.962322,0.10710492969455189,-0.5267111476598776,0.7557010119888464,-0.3741923054326117
640,15.990533828735352,0.4778,0.2122,0.3246,-14.077,2.948,1.284,-1.209559,0.476155,-0.988257,-0.726756902418112,-0.23628252444891468,0.5987462786192318,-0.2397871290693066
641,16.028935194015503,0.4736,0.2173,0.3338,-13.294,5.648,0.751,-0.97361,0.498975,-1.2547,-0.9477017308959423,0.1913804482450422,0.12788537107656747,0.22108886256654842
642,16.04852819442749,0.4674,0.2365,0.3371,-14.425,0.732,5.051,0.062107,0.161336,-2.018439,0.36695346886096125,0.5766306309213495,0.10288984435920129,-0.7226727801030652
643,16.065279960632324,0.4602,0.2609,0.3346,-14.734,0.557,4.773,0.743878,-0.147239,-2.36001,0.5689156158722983,-0.19476811207740133,-0.7924887346886502,0.10179395820003487
644,16.102550268173218,0.4494,0.2837,0.3258,-13.398,-4.056,3.119,0.714406,-0.187573,-2.160055,-0.46239760590170614,-0.7288481092215149,-0.08120802819764783,0.4983714918580747
645,16.11800789833069,0.4372,0.3013,0.3256,-13.055,-9.646,2.73,-0.211357,0.146612,-1.808856,-0.42169284474679114,-0.45219401117417446,0.565528803774079,-0.5457773291823586
646,16.140540838241577,0.42,0.3142,0.3286,-13.026,-10.203,4.704,-1.345724,0.086401,-1.675148,0.4394873691093013,-0.4288344485291263,0.6835443562331844,0.39461244431703657
647,16.1751070022583,0.402,0.3187,0.3436,-9.459,-5.318,2.192,-1.615369,0.461717,-1.371158,-0.07079926030306195,-0.5842869363048052,-0.7807855079648739,-0.20969079940740762
648,16.190407276153564,0.3826,0.322,0.3586,-7.56,-2.976,-0.478,-0.887218,0.252772,-1.15575,-0.023253777715193838,-0.8016196084008438,0.08961184133655217,-0.5906225386331974
649,16.229812622070312,0.3641,0.3273,0.3657,-5.393,-5.233,-0.733,0.173775,-0.034031,-0.784847,-0.06062296935901014,-0.9905988245965514,0.09810166504564366,0.07358591991202934
650,16.24909210205078,0.3472,0.3381,0.3635,-4.632,-6.826,-1.722,0.772922,-0.101657,-0.10397,0.39981162086273414,-0.836728427084814,0.2843740628490499,0.2432439095023981
651,16.264655590057373,0.342,0.347,0.3652,-3.946,-5.181,-1.589,1.042504,-0.15238,0.505013,0.8693097735136521,-0.3516314478938228,0.26450380945767604,-0.22515234244420798
652,16.290428161621094,0.3405,0.3487,0.3604,-3.148,-3.068,-1.06,1.127951,0.010918,1.101905,0.808711779282371,0.1656246460845327,-0.5292859667660056,-0.195984948513629
653,16.322219610214233,0.3431,0.349,0.3598,-2.132,-4.27,-0.177,1.264008,0.113328,1.629525,0.5069293669046885,-0.03469735470477654,-0.23607997579026707,0.8283024541657289
654,16.340927839279175,0.3548,0.3488,0.3589,-1.283,-4.185,1.123,1.21468,-0.009897,2.11513,0.6521475524647944,-0.2987180163026256,0.5970788998445784,-0.35912101569079824
655,16.365043878555298,0.3718,0.3423,0.3565,-1.588,-3.745,1.309,0.998789,-0.130656,2.555718,0.5188219326773327,-0.8062670844777962,-0.2780708357352749,-0.05859864310816065
656,16.39994525909424,0.3903,0.3302,0.3533,-1.455,-3.731,0.521,0.708217,-0.182694,2.853626,-0.3015544396694287,0.6114116640416111,0.7157970792311243,-0.15124562259357033
657,16.41455340385437,0.4137,0.314,0.3528,-1.603,-3.641,-0.234,0.772328,-0.215391,3.006496,0.16486337000960172,0.6189878079775369,0.5067286830580937,-0.5769750467485146
658,16.440037488937378,0.441,0.2944,0.3488,-2.493,-5.101,0.14,0.968339,-0.216588,3.061417,0.5725378947731488,0.3089540541100521,-0.7463876815202334,0.1401898012429742
659,16.481958150863647,0.4662,0.2725,0.3483,-3.407,-5.804,0.885,0.847428,-0.196326,3.005182,-0.5200681437174423,0.32623416001544936,-0.02968017955722327,-0.7888089031386241
660,16.4955735206604,0.4894,0.252,0.3472,-4.772,-6.978,1.251,0.906386,-0.205148,2.659205,0.1177767033298274,-0.4910048973663571,0.6025450511932791,-0.618047166644666
661,16.515068769454956,0.511,0.2352,0.3456,-7.435,-9.093,2.443,1.026503,-0.174439,2.154452,-0.6863359588226512,0.291699989284073,-0.6606822857228124,-0.08574954933259843
662,16.54055666923523,0.5323,0.2193,0.3421,-9.087,-10.428,2.912,0.672603,-0.109325,1.483311,-0.144708446956207,0.01964824713690498,0.46526072407748514,0.8730440254619831
663,16.56592106819153,0.5474,0.2132,0.3438,-7.946,-9.793,2.217,0.073966,-0.066566,0.742863,-0.5443910584866668,0.24846784244872672,0.35387147445843403,0.7188025363569992
664,16.590815782546997,0.5579,0.2132,0.3406,-13.351,-19.639,8.84,-0.012833,-0.666353,-0.830731,-0.17698516273434015,0.1161393908651062,0.6243230859982389,0.7519365520780439
665,16.633195638656616,0.5598,0.2368,0.3384,-21.223,-4.693,-9.179,-0.686438,0.822437,-1.693374,-0.3155826976092909,-0.4966737654943153,-0.18348975916397267,0.7874352290323872
666,16.64582920074463,0.5518,0.2568,0.3483,-0.661,9.784,4.918,0.704047,0.35551,-1.063646,-0.7350916026772158,-0.06298622678409505,-0.6548403537728655,0.16388160964419754
667,16.665854454040527,0.5524,0.2796,0.3447,-9.383,-7.658,3.266,0.924486,-0.403463,-1.393219,0.972312071211242,0.06385748604304203,0.11937743831359104,-0.19047436802586443
668,16.689644813537598,0.5502,0.3034,0.3398,-9.83,-9.374,-1.647,0.150341,0.177124,-1.172178,0.4935278200797629,0.2203905894890728,-0.820466748519532,0.1862594788078259
669,16.719614267349243,0.5461,0.3178,0.3442,-8.731,-0.851,3.253,-0.521656,0.077637,-0.847579,0.5236265199189851,0.1667092838375546,-0.8273190425844935,0.11647525100629508
670,16.75039839744568,0.5435,0.3291,0.3503,-10.521,-3.965,1.549,-0.165684,0.093375,-0.67747,0.877286695573361,0.25189115682144136,-0.2621816764689259,-0.3133363486879117
671,16.76730990409851,0.5418,0.3389,0.3495,-7.614,-5.136,2.514,0.295995,0.156381,-0.502726,0.6929444440925399,-0.4289690436000107,-0.17822841843503512,0.5514056473199374
672,16.78962779045105,0.5402,0.3453,0.3517,-9.067,-5.56,1.655,0.187195,0.185014,-0.211711,0.026601430801206194,-0.3826184465343694,-0.6600799672602846,0.6459024114156999
673,16.82634162902832,0.5381,0.3489,0.3523,-9.945,-4.322,1.745,-0.000376,0.208096,-0.003395,-0.2239595554496562,0.03192503105485435,-0.9308818969945235,0.2868480499547041
674,16.839662075042725,0.5379,0.3494,0.3558,-8.817,-3.712,1.574,0.063153,0.180453,0.097359,-0.11527082871980454,0.372007968482517,-0.9198447715999268,0.04699259082066609
675,16.870986938476562,0.5397,0.3466,0.3588,-9.049,-4.119,0.864,0.089429,0.064147,0.228453,-0.0030085841721193066,0.37348567863829835,-0.9130942276418267,0.16357972894140912
676,16.893228769302368,0.5397,0.3439,0.3568,-9.031,-3.82,1.581,0.096324,-0.00997,0.3314,0.17082787498988278,0.1932637730171758,-0.8400803318914964,0.47721272733936976
677,16.91596221923828,0.5409,0.3372,0.356,-9.154,-3.398,1.351,0.028004,-0.06636,0.402451,0.5228098715577529,0.14925401773574087,-0.5841734701795345,0.602606366652316
678,16.940119981765747,0.5441,0.3326,0.3538,-8.957,-3.543,1.863,0.026228,-0.100649,0.478871,0.6587211664959132,0.3615853238806869,-0.5166539749700784,0.41037927397954643
679,16.96593141555786,0.5453,0.3245,0.3551,-9.492,-3.417,1.66,-0.129604,-0.08764,0.578593,0.5869988295373291,0.21991687891436132,-0.6432538254858181,0.4396515170998874
680,16.989676237106323,0.5484,0.3139,0.3529,-9.459,-2.829,1.733,-0.163639,-0.070706,0.642876,0.9213567581418732,0.1938475310612871,-0.2726063155621095,0.19801680646700817
681,17.01631498336792,0.5502,0.3036,0.3514,-9.311,-2.486,1.797,-0.113682,-0.071951,0.685553,0.22636193289163245,0.5273951676783185,-0.7349143485867209,-0.36126930770337806
682,17.040406942367554,0.5527,0.2925,0.3513,-9.523,-2.477,1.68,-0.097325,-0.039278,0.711505,0.08496365510031884,-0.603739832974691,-0.4850387869365544,0.6269104932594461
683,17.07542586326599,0.5545,0.2814,0.3515,-9.196,-2.485,1.481,-0.136762,-0.05082,0.717487,0.6220220850135855,0.4046477986447578,0.5268395189463478,-0.41447413198375144
684,17.091270446777344,0.5571,0.2692,0.3511,-9.254,-1.725,1.735,-0.189739,-0.120453,0.690265,-0.8282888041490271,-0.11069768388825466,-0.509535070289263,0.20507972071481473
685,17.11633849143982,0.5591,0.2579,0.3513,-9.505,-1.405,2.129,-0.233373,-0.12002,0.620784,0.34496565558270575,0.11669346605075236,0.9125096867735499,0.18629922971900248
686,17.141422510147095,0.5601,0.2465,0.3499,-9.189,-0.978,1.965,-0.42588,-0.08085,0.565251,-0.7641017683567864,0.6292550866756984,-0.1420517829995125,0.002795430816654995
687,17.177732706069946,0.5608,0.237,0.3479,-9.368,-0.858,2.371,-0.235111,-0.079295,0.462987,-0.22875529677873924,0.007492018460830453,0.2629989311970531,0.9372547391420655
688,17.19080400466919,0.5616,0.2294,0.35,-8.868,-0.635,1.928,-0.29235,-0.064653,0.355602,0.19776754528234636,0.7305357609186793,0.522929236746128,0.3921103332074703
689,17.238313674926758,0.5629,0.2264,0.3502,-9.496,0.413,1.661,-0.283832,-0.064277,0.17468,-0.057793397188258974,0.9679435821180618,-0.006940177528940994,0.24432965234240814
690,17.24832010269165,0.561,0.2224,0.3494,-9.495,0.496,2.355,-0.088152,-0.069668,-0.043122,-0.09679487494369853,0.946188633302558,-0.1921245006649567,0.24175607259779902
691,17.265233993530273,0.5639,0.2221,0.3499,-9.889,-0.211,2.196,-0.102062,-0.032401,-0.216475,0.17367489934812455,0.9750738719857827,0.02670359207511088,0.1354802261489057
692,17.301178693771362,0.5613,0.2275,0.351,-9.528,0.093,2.166,-0.138408,-0.002779,-0.417645,0.5829459058568194,0.3446388423864771,0.386606917478286,0.6260457096101044
693,17.31560707092285,0.5603,0.2327,0.3508,-9.905,-0.52,2.489,-0.153064,0.040155,-0.563444,-0.44624148087676463,0.128896903523595,-0.6408168778614753,0.6112346996488438
694,17.343249797821045,0.559,0.2421,0.3547,-10.336,-1.445,2.206,-0.320889,0.102517,-0.641742,0.6592517966018501,0.5692737722272333,0.4745474221786784,-0.12696135252501206
695,17.365155696868896,0.5585,0.2478,0.358,-10.557,-2.007,2.727,-0.433824,0.14139,-0.644484,-0.5860722898118956,-0.2514146436612771,-0.673109181517504,0.37447827416840923
696,17.390297412872314,0.5574,0.2521,0.3634,-11.434,-1.245,2.126,-0.448113,0.198564,-0.684949,0.600957851966343,0.10500623780979207,0.7591542759325898,-0.22695403833000605
697,17.420092582702637,0.5533,0.2596,0.3683,-11.344,-1.595,2.255,-0.486563,0.262756,-0.729988,-0.9075098863931437,-0.056302191758046974,-0.3794176128246642,-0.17116700727761947
698,17.440232515335083,0.5499,0.2669,0.3748,-12.892,-1.014,2.32,-0.522415,0.248303,-0.768976,0.01801978517504757,-0.22738426556702648,0.9648203288995342,0.13074179154724813
699,17.476204872131348,0.5499,0.2728,0.3784,-14.029,-0.911,2.326,-0.357117,0.28501,-0.754023,-0.9075009031103559,0.25238785664410507,0.3274654964100382,-0.07422148835351036
700,17.497809648513794,0.5455,0.2782,0.3859,-14.347,0.088,1.501,-0.794429,0.304108,-0.693867,-0.5313413759933656,0.28195598375306113,0.7092939945437422,0.3675312159361463
701,17.515477180480957,0.5428,0.2767,0.3951,-13.551,1.482,0.813,-1.13237,0.398041,-0.741181,-0.19885818894300103,0.531353333750606,0.40678422545528453,0.715992771837238
702,17.54088854789734,0.5399,0.2761,0.408,-12.487,2.802,0.729,-1.350699,0.399766,-0.874783,0.07908577907929408,0.9265204888317448,-0.3413705531340322,0.13700864489283454
703,17.57743191719055,0.5377,0.2757,0.4201,-12.957,0.921,1.199,-1.131915,0.283633,-1.258107,0.19648114600846156,-0.6060400952661479,-0.17840183824231134,0.7498555502926976
704,17.589675664901733,0.5317,0.2824,0.4293,-15.062,2.842,3.436,-0.256479,0.17931,-1.643913,-0.8291740257018625,0.39430458771172194,0.14082881741627107,-0.37035330617667045
