,time,magX,magY,magZ,linear_accX,linear_accY,linear_accZ,angular_velX,angular_velY,angular_velZ,orientationX,orientationY,orientationZ,orientationW
0,0.0,0.6067,-0.0185,0.4373,-9.581,0.404,1.658,0.045039,0.009791,-0.007653,0.29028858837321386,-0.5068553726970257,-0.35417225764844174,0.7303370307882873
1,0.025327444076538086,0.5986,-0.0141,0.4219,-9.597,0.24,1.69,0.052544,0.01564,-0.007819,0.27637400032425397,-0.49922200435025965,-0.34682509866968214,0.744383740586832
2,0.050846099853515625,0.6056,-0.0169,0.4346,-9.635,0.217,1.679,0.024689,0.02604,-0.003756,0.26455680393966563,-0.5012935223852102,-0.3318942766256498,0.7540296353904101
3,0.07769465446472168,0.6002,-0.016,0.4235,-9.66,0.132,1.664,-4.1e-05,0.02855,0.010982,0.29816398179005177,-0.5102349259950991,-0.27480515510122766,0.7584462321006464
4,0.10036635398864746,0.6069,-0.0169,0.4375,-9.576,0.158,1.584,-0.027015,0.033102,0.026917,0.4029427099495408,-0.5126178124874552,-0.14979044503775388,0.7432516218579599
5,0.12720346450805664,0.5979,-0.0141,0.4213,-9.535,0.347,1.58,-0.026092,0.029976,0.029357,0.5429624583852669,-0.4798406843030474,0.008655596885941585,0.6891079502620461
6,0.1505277156829834,0.6056,-0.0169,0.4321,-9.583,0.284,1.596,-0.011647,0.024556,0.025064,0.6609657209880941,-0.41303366040504574,0.14277558704465818,0.6100349521094277
7,0.17899656295776367,0.5999,-0.0147,0.4275,-9.605,0.289,1.652,-0.018064,0.026609,0.022819,0.7502545596546791,-0.3312548251275692,0.24821125860354823,0.5155380758484376
8,0.20016956329345703,0.6066,-0.0199,0.4426,-9.625,0.393,1.621,-0.011474,0.023424,0.017252,0.8111879013822897,-0.2473823249275594,0.32581949750584827,0.4178729819089391
9,0.22923970222473145,0.5981,-0.0157,0.4237,-9.609,0.34,1.622,-0.006053,0.022924,0.012172,0.8458054987916626,-0.17314503407905615,0.37862478397221744,0.3335822662395905
10,0.25213170051574707,0.6051,-0.0166,0.434,-9.568,0.288,1.602,-0.015526,0.023537,0.011374,0.8637757107383277,-0.11085031811316323,0.41634996488678805,0.26125932567370214
11,0.2796297073364258,0.6004,-0.0179,0.428,-9.563,0.328,1.459,-0.022589,0.020403,0.009217,0.8734130123382698,-0.0558241031816049,0.44351749055842277,0.1931983823713805
12,0.3016483783721924,0.6061,-0.0194,0.4424,-9.616,0.34,1.52,0.003088,0.010917,0.005122,0.8759235169641294,-0.014694754374680291,0.4599492296961322,0.14487498999134707
13,0.3292512893676758,0.5989,-0.0166,0.4245,-9.585,0.265,1.613,-0.001118,0.011577,0.003554,0.8746781396728492,0.014884747306659105,0.47123723750556507,0.11248138630095303
14,0.35044026374816895,0.6059,-0.0196,0.4364,-9.557,0.401,1.515,-0.0066,0.011188,0.00341,0.8727386178597507,0.04978534766633816,0.4802818772419084,0.07195861621086395
15,0.37854743003845215,0.601,-0.0166,0.4286,-9.586,0.461,1.514,0.039058,0.0031,-0.00383,0.8693110836357273,0.06005959127033074,0.48632437791989286,0.06465048186477597
16,0.4008762836456299,0.6071,-0.0202,0.4435,-9.594,0.398,1.603,0.057295,-0.001981,-0.00793,0.8653491702458381,0.044819036314197286,0.4901990588829934,0.09416448485991753
17,0.42882680892944336,0.5989,-0.0147,0.424,-9.614,0.264,1.52,0.042381,0.001125,-0.011373,0.8584053040444982,0.005689549237158267,0.4917884740052523,0.14578086243857827
18,0.45214366912841797,0.6061,-0.0169,0.4378,-9.606,0.246,1.553,0.02386,0.000713,-0.00964,0.8484879923813071,-0.03805898928880658,0.48996012986897475,0.19636372184757275
19,0.477982759475708,0.6007,-0.0147,0.43,-9.544,0.207,1.542,0.018752,-0.003163,-0.000223,0.8425237821646772,-0.05619642093597271,0.48858947621329085,0.21971791573409952
20,0.5007460117340088,0.6087,-0.0188,0.4416,-9.609,0.249,1.541,0.015274,-0.00772,0.008301,0.8465672770732385,-0.03509456355178171,0.4901582312789294,0.20454125575889107
21,0.5292022228240967,0.5994,-0.0138,0.4229,-9.6,0.254,1.538,0.010613,-0.010163,0.017177,0.856590838137011,0.028768165247859523,0.4933586997163485,0.14839717686734716
22,0.5505514144897461,0.608,-0.0147,0.437,-9.655,0.35,1.545,0.007038,-0.00845,0.020561,0.8614698550443596,0.11310769072789337,0.49002519020464064,0.07036797647338648
23,0.576801061630249,0.6038,-0.0177,0.4297,-9.566,0.342,1.59,0.005982,-0.006608,0.01803,0.8565695920645597,0.19434446507870556,0.478005127632181,-0.005464503725653519
24,0.6009278297424316,0.6093,-0.0174,0.4411,-9.594,0.246,1.565,0.003021,-0.008107,0.022956,0.8399755909411812,0.2847613654363232,0.45304488015246885,-0.09001282100617314
25,0.6276640892028809,0.5999,-0.0152,0.424,-9.536,0.263,1.514,-0.018187,-0.006172,0.028945,0.8019903131606418,0.3935098164666059,0.40406462161819434,-0.19670623654947808
26,0.6514968872070312,0.6082,-0.0182,0.4365,-9.543,0.32,1.468,-0.006028,-0.009002,0.026805,0.7439326802503503,0.49601023253638626,0.3334967925144995,-0.2988610142813391
27,0.677201509475708,0.603,-0.0174,0.4278,-9.648,0.239,1.639,-0.023123,-0.011484,0.031441,0.6709559425628097,0.5848078011522905,0.24505137097821672,-0.384405754942315
28,0.701063871383667,0.609,-0.0199,0.4421,-9.688,0.437,1.512,-0.052869,-0.001367,0.03725,0.5607089265050869,0.6669818694356873,0.11722828815180286,-0.4764432957221528
29,0.728421688079834,0.6015,-0.0184,0.4224,-9.588,0.488,1.688,-0.036232,0.001611,0.026685,0.4508226661329737,0.7138506941836168,-0.004269521185858716,-0.535871142443003
30,0.7499418258666992,0.609,-0.0209,0.4364,-9.514,0.336,1.695,-0.053273,0.004257,0.019519,0.369457332529174,0.7301352766502474,-0.09267341339160404,-0.5672877538618677
31,0.7771649360656738,0.6033,-0.0187,0.4272,-9.561,0.531,1.642,-0.029506,-0.002432,0.012917,0.30794580836124597,0.7327631725109645,-0.158747325841808,-0.5856848970756208
32,0.804175615310669,0.6111,-0.0207,0.4413,-9.563,0.382,1.539,0.007388,-0.007674,0.002856,0.2848509622570821,0.734396379791697,-0.1866382852238025,-0.5871013857408127
33,0.8259563446044922,0.6046,-0.0176,0.4221,-9.585,0.454,1.498,0.028229,-0.022005,-0.002269,0.30934107377138076,0.7352936500694488,-0.17339336111054993,-0.5775691218965073
34,0.8503923416137695,0.6114,-0.0201,0.4349,-9.613,0.313,1.599,0.048308,-0.025734,-0.001406,0.3460684143123105,0.7388299537503977,-0.14975092123214578,-0.5585173351353312
35,0.8766272068023682,0.607,-0.0182,0.4281,-9.635,0.328,1.592,0.028169,-0.020035,0.001447,0.3702616957306598,0.7417811591583422,-0.13774824058845797,-0.5419339542851572
36,0.9020934104919434,0.6147,-0.0209,0.4389,-9.566,0.396,1.666,0.028901,-0.018612,0.002263,0.37699020031939723,0.7464616632904635,-0.13981361151212912,-0.530212719704753
37,0.9257242679595947,0.6073,-0.017,0.4203,-9.651,0.354,1.671,0.017843,-0.007819,0.000337,0.38365278978389583,0.7505331679953174,-0.13702366038881475,-0.5203220321335598
38,0.9497437477111816,0.6142,-0.0182,0.4322,-9.629,0.258,1.705,-0.02006,0.001743,0.013136,0.3607381200908287,0.7542875398820819,-0.1620596493744323,-0.5240753628406964
39,0.9760890007019043,0.6106,-0.0192,0.4268,-9.58,0.33,1.612,-0.041955,0.00751,0.017847,0.30262743238042544,0.754384119196445,-0.22146238546133604,-0.538772354246958
40,1.0012085437774658,0.6179,-0.0225,0.4373,-9.565,0.373,1.53,-0.028897,0.003186,0.01842,0.2303149291060343,0.748140814356525,-0.295568643329137,-0.5476125750979531
41,1.0263421535491943,0.6112,-0.0167,0.4184,-9.588,0.38,1.649,-0.039734,0.000319,0.018234,0.16905558375836588,0.7354273178782967,-0.36261728052946723,-0.5468780280646374
42,1.049739122390747,0.6189,-0.019,0.4325,-9.596,0.36,1.633,-0.044959,0.000438,0.018037,0.11615681974564304,0.7151550275303988,-0.42391826555364703,-0.5434649795106952
43,1.0780467987060547,0.6153,-0.0208,0.4252,-9.591,0.392,1.619,-0.051701,-0.001675,0.012989,0.08427102768967579,0.6951995299465876,-0.4646756907660544,-0.5419155929342314
44,1.0998475551605225,0.6239,-0.023,0.4336,-9.566,0.48,1.609,-0.052073,0.00087,0.009082,0.05948987705510567,0.6763359244197686,-0.4945514095528434,-0.5426320808582196
45,1.1267778873443604,0.6153,-0.0205,0.4174,-9.629,0.613,1.43,-0.027582,-0.00655,0.001911,0.06201042555318226,0.6681768959611976,-0.4963667082956103,-0.5507398966137759
46,1.1498701572418213,0.6226,-0.0217,0.4309,-9.607,0.412,1.596,0.010376,-0.011526,-0.008629,0.10175324980076711,0.6797953737228679,-0.4621379382199312,-0.5603151363989732
47,1.1813457012176514,0.6211,-0.0208,0.4212,-9.604,0.326,1.581,0.008419,-0.014743,0.001307,0.1357686039796484,0.6890318891998395,-0.43703010751189797,-0.5619667489872125
48,1.1990728378295898,0.6273,-0.0241,0.4341,-9.604,0.18,1.642,0.004782,-0.012338,0.009555,0.131337455092991,0.6870437159726231,-0.4507727025376136,-0.5545497055081375
49,1.2264864444732666,0.6211,-0.0197,0.4169,-9.583,0.303,1.572,-0.021819,-0.005651,0.023872,0.06494846347784969,0.6606703461187158,-0.5258353979101317,-0.5317833441881537
50,1.2513387203216553,0.6278,-0.0203,0.4261,-9.629,0.324,1.569,-0.021006,-0.010874,0.02092,0.002652148750367067,0.6223990331062323,-0.6019360992153927,-0.5002852607830756
51,1.2777087688446045,0.6221,-0.0221,0.419,-9.631,0.347,1.695,-0.030412,-0.003879,0.032133,-0.07306518274027923,0.5627899768569237,-0.6887252207659882,-0.4512055975953245
52,1.3008813858032227,0.6291,-0.0255,0.4333,-9.532,0.4,1.618,-0.055757,-1.1e-05,0.025599,-0.14320691675901479,0.4854690405468467,-0.7672731977728804,-0.39383172757191454
53,1.3280408382415771,0.6221,-0.0235,0.4158,-9.504,0.551,1.646,-0.048168,0.004312,0.010173,-0.17983559757771522,0.43126388312407027,-0.8062353454496732,-0.36284320126503683
54,1.3524651527404785,0.6294,-0.0249,0.4258,-9.573,0.616,1.677,-0.039632,0.004255,-0.007204,-0.17402303742898725,0.4337883284686335,-0.7953388369955738,-0.38597901872369456
55,1.3835151195526123,0.6247,-0.024,0.4228,-9.583,0.457,1.648,-0.014538,0.003837,-0.01765,-0.13048083300122829,0.4823163349307279,-0.7429793742590093,-0.44533959480826124
56,1.4014997482299805,0.6301,-0.0263,0.4323,-9.601,0.43,1.576,-0.022878,0.005007,-0.021923,-0.05779348078550864,0.5440105017293222,-0.6592558440729719,-0.5158432122675839
57,1.4256205558776855,0.6229,-0.0216,0.4144,-9.619,0.329,1.636,-0.013493,0.006586,-0.020593,0.026083432871829126,0.5950831019120546,-0.5634220948718965,-0.5724956762793163
58,1.4514744281768799,0.6307,-0.0246,0.4263,-9.585,0.297,1.707,-0.031444,0.012454,-0.004413,0.07283003985045391,0.6160202209486454,-0.5027645072779308,-0.6020321610174515
59,1.477254867553711,0.6255,-0.023,0.4215,-9.555,0.246,1.564,-0.048376,0.013893,0.005335,0.06437806157669435,0.610788886812398,-0.4964879036651325,-0.6134265746185937
60,1.5159146785736084,0.6312,-0.0274,0.4333,-9.581,0.319,1.634,-0.052328,0.00707,0.017618,0.014780234238177037,0.58392548940368,-0.539123251706093,-0.6067608152891764
61,1.525451421737671,0.6219,-0.0232,0.415,-9.614,0.378,1.606,-0.066632,0.00626,0.022094,-0.04922484738726443,0.5411628465867299,-0.5982743534416894,-0.5888866494392418
62,1.55452299118042,0.6283,-0.0268,0.426,-9.551,0.292,1.607,-0.074889,0.008183,0.022898,-0.1171691389327145,0.4856596650594749,-0.6605656745427122,-0.5604097360253623
63,1.5774543285369873,0.6242,-0.0262,0.422,-9.575,0.445,1.643,-0.088746,0.00842,0.025447,-0.18075529112842786,0.41871962666770823,-0.7162327454346246,-0.5282159154545728
64,1.6344785690307617,0.6291,-0.0276,0.4322,-9.592,0.398,1.725,-0.093511,0.009925,0.018949,-0.23433916099990595,0.3550056563275532,-0.7558349696850188,-0.4977646433793286
65,1.6358449459075928,0.6229,-0.0259,0.4171,-9.506,0.669,1.538,-0.08386,0.008411,0.003211,-0.25871504221336417,0.32375956378200343,-0.7613609333102695,-0.4985737668802274
66,1.6515858173370361,0.6291,-0.0281,0.4239,-9.581,0.536,1.595,-0.020005,-0.00339,-0.013557,-0.23224266955296896,0.3554739794293442,-0.7248933379641482,-0.5424308628413135
67,1.6790375709533691,0.6239,-0.0278,0.4227,-9.582,0.357,1.648,-0.027827,0.005121,-0.015008,-0.17336664105552832,0.41447822852537,-0.6565367150528383,-0.6058971427851619
68,1.7002503871917725,0.6312,-0.0309,0.4322,-9.597,0.33,1.601,-0.039048,0.006306,-0.010947,-0.12032239677636741,0.45710200636057047,-0.5882517919184725,-0.6561555500945166
69,1.728069543838501,0.6239,-0.0248,0.415,-9.544,0.395,1.526,-0.026726,0.005136,-0.01243,-0.06752149042262162,0.49110734791725785,-0.5201162080376556,-0.6955095623277335
70,1.7499499320983887,0.6294,-0.0273,0.4247,-9.598,0.401,1.547,-0.001654,-0.000152,-0.011441,-0.011451185666890296,0.517983244239056,-0.45627598411164316,-0.7234462352914393
71,1.7747235298156738,0.625,-0.0265,0.4228,-9.641,0.324,1.632,-0.019219,0.00121,-0.011601,0.05210061778178565,0.5399942678598226,-0.38576558794332994,-0.7462416682710954
72,1.8009836673736572,0.6312,-0.0314,0.4314,-9.588,0.363,1.596,-0.015008,0.003697,-0.009925,0.10158807788174673,0.5514166772497725,-0.3284930745607548,-0.7600735559462222
73,1.8266263008117676,0.6237,-0.0264,0.4125,-9.556,0.399,1.623,-0.021279,0.003573,-0.008848,0.14386632754591763,0.55898516213079,-0.27614300491483423,-0.7684940527763836
74,1.8525402545928955,0.6296,-0.027,0.4263,-9.567,0.332,1.594,-0.011549,0.002617,-0.016964,0.21368000270187948,0.5636561585643013,-0.19739383575050007,-0.7730900755834113
75,1.8766191005706787,0.6252,-0.0265,0.4214,-9.631,0.371,1.653,-0.03328,0.00824,-0.012002,0.2899907542294453,0.5584807835830341,-0.10730759811548868,-0.7697334968783693
76,1.8997037410736084,0.6314,-0.0279,0.4312,-9.597,0.396,1.544,-0.020837,0.004784,-0.013643,0.36081956979625585,0.5443278086176975,-0.02274017383033844,-0.7569672115168966
77,1.9275016784667969,0.6234,-0.0256,0.4168,-9.582,0.362,1.555,-0.004363,0.000607,-0.014828,0.43348620941979976,0.5208442417784277,0.05819013074561563,-0.733092689046151
78,1.9499893188476562,0.6294,-0.0273,0.4239,-9.562,0.326,1.64,0.004432,0.000432,-0.013966,0.5020329679812583,0.49157053457648137,0.13048998966327666,-0.6994952974779738
79,1.9760456085205078,0.6239,-0.0262,0.4217,-9.572,0.38,1.554,0.001085,0.003485,-0.014624,0.5605425087211401,0.45797523554388825,0.19586348884437432,-0.6615801336821111
80,2.0000321865081787,0.6304,-0.0273,0.4317,-9.615,0.333,1.572,0.016258,0.002127,-0.018322,0.6192955137450366,0.4167827722527066,0.25962475220982073,-0.6126664471379258
81,2.0258066654205322,0.6208,-0.0213,0.4152,-9.603,0.386,1.555,0.020003,-0.001062,-0.018773,0.6823312640895085,0.3592484920316956,0.32594644485610375,-0.5469218244910626
82,2.0516884326934814,0.6268,-0.0241,0.4255,-9.562,0.363,1.524,0.029646,-0.001821,-0.023671,0.7479752695074422,0.2793000125788166,0.39240346773528645,-0.45666619941491643
83,2.0770263671875,0.6231,-0.0243,0.4217,-9.599,0.369,1.605,0.039745,-0.003354,-0.026776,0.80432027793556,0.1797947446087615,0.4494654373934914,-0.34456285479054594
84,2.0996880531311035,0.6278,-0.0271,0.4303,-9.61,0.288,1.691,0.031633,-8.6e-05,-0.028214,0.8441639263208848,0.05860671381409835,0.48952626286791306,-0.21051497941238062
85,2.129823684692383,0.6198,-0.0229,0.4174,-9.604,0.301,1.571,0.019512,0.005397,-0.026018,0.8553707472090362,-0.05996369404421442,0.5080778387912792,-0.08125361496456583
86,2.1526741981506348,0.6263,-0.0227,0.4271,-9.575,0.337,1.573,0.024424,0.005165,-0.026006,0.8436750317603944,-0.17267420275256684,0.5065062205119315,0.04298266011523581
87,2.1767990589141846,0.6221,-0.0208,0.4217,-9.594,0.329,1.555,0.031671,0.004225,-0.025558,0.812702280746773,-0.2795457097899429,0.48494138084822314,0.1618674029817271
88,2.1988797187805176,0.6281,-0.0238,0.4325,-9.581,0.266,1.602,0.025065,0.005532,-0.022948,0.7673469343688825,-0.3726510022136655,0.4486827187592075,0.26644648759305206
89,2.226118326187134,0.6195,-0.0175,0.418,-9.605,0.326,1.564,0.011851,0.005193,-0.020812,0.7082721404517272,-0.45826688828797557,0.3986854873006032,0.35971087886616065
90,2.2507059574127197,0.6252,-0.0203,0.4285,-9.622,0.363,1.571,0.019005,0.005649,-0.026642,0.625069071238026,-0.5451737865929038,0.32543169995835275,0.45405771357372965
91,2.2771379947662354,0.6205,-0.0189,0.4236,-9.576,0.225,1.551,0.016947,0.003262,-0.024764,0.5237311621039414,-0.6192582882103382,0.233953491127731,0.5361815050085216
92,2.300715923309326,0.6257,-0.0214,0.4328,-9.56,0.252,1.683,0.001708,0.005502,-0.024366,0.4035500083933123,-0.6787120156549507,0.12452038344041999,0.6008261517603927
93,2.325732946395874,0.6193,-0.0165,0.4201,-9.58,0.235,1.645,-0.02096,0.009704,-0.018691,0.28730581025166413,-0.7138299947422808,0.02273913337305078,0.6382672181894609
94,2.349827766418457,0.6245,-0.0173,0.4269,-9.577,0.275,1.561,-0.026979,0.011617,-0.018391,0.17153626624429785,-0.7310842174049311,-0.07580046595994633,0.6560072147352038
95,2.3761937618255615,0.6205,-0.0192,0.4255,-9.635,0.26,1.571,-0.03532,0.011195,-0.017638,0.050480234322316464,-0.7313037310158217,-0.1793104770564029,0.6561206838401819
96,2.401576280593872,0.6255,-0.02,0.4323,-9.589,0.218,1.546,-0.035187,0.011769,-0.015507,-0.05591471472483711,-0.7167613429506483,-0.26794372270729694,0.6413523862827506
97,2.42673397064209,0.6177,-0.0167,0.4182,-9.565,0.248,1.535,-0.029066,0.009081,-0.013311,-0.14804261985656644,-0.691713595645201,-0.3447237874394464,0.6170747075346672
98,2.450887441635132,0.6239,-0.0165,0.4274,-9.614,0.266,1.576,-0.022557,0.007152,-0.014979,-0.23151214116852226,-0.6576294299179768,-0.4158119409081831,0.5839743925854048
99,2.4751200675964355,0.62,-0.0157,0.4261,-9.633,0.214,1.546,-0.019544,0.002358,-0.013405,-0.31290173167479896,-0.6114202838241207,-0.4872427183754485,0.5393072187848471
100,2.5007193088531494,0.6242,-0.0209,0.432,-9.611,0.191,1.533,-0.016602,0.002438,-0.008221,-0.3679570211479445,-0.5720843186122182,-0.5351173882830182,0.5009755919634076
101,2.525372266769409,0.618,-0.0154,0.4201,-9.606,0.215,1.541,-0.018002,0.00278,-0.000671,-0.39685182365003063,-0.5499147933975227,-0.556760446021449,0.47970840707058926
102,2.5502099990844727,0.6226,-0.0168,0.4285,-9.582,0.204,1.565,-0.011141,0.001601,0.006448,-0.3963371134087572,-0.552450075196929,-0.5524072475084889,0.48224686608605005
103,2.5760653018951416,0.6185,-0.0165,0.4255,-9.621,0.231,1.524,-0.017668,0.001878,0.013495,-0.36261021599844934,-0.5831227926977891,-0.5159877398633921,0.5120920739481893
104,2.600595235824585,0.6231,-0.0214,0.4344,-9.623,0.24,1.558,-0.014811,0.000428,0.013953,-0.30900761893935597,-0.6230129804608944,-0.4617396632179631,0.5506047593564961
105,2.6268157958984375,0.6167,-0.0178,0.4193,-9.593,0.291,1.619,-0.015703,0.003919,0.014105,-0.2533007551897383,-0.6571986391671127,-0.4039649828898548,0.5837302191046841
106,2.649961471557617,0.6211,-0.0179,0.429,-9.588,0.222,1.576,-0.01648,-9.9e-05,0.014032,-0.19566012234491967,-0.6854949466081871,-0.3454695192746478,0.6102987841629324
107,2.6841230392456055,0.6185,-0.0181,0.426,-9.578,0.256,1.561,-0.016585,0.000125,0.012345,-0.14481984641199855,-0.7055289301073813,-0.2930540714688484,0.6287888771776025
108,2.699296712875366,0.6236,-0.022,0.4331,-9.605,0.242,1.559,-0.028734,0.002223,0.010493,-0.10504257164957234,-0.718634693080566,-0.2500576077691023,0.6403135394781521
109,2.724982738494873,0.6159,-0.0157,0.4204,-9.629,0.267,1.543,-0.021098,-0.00059,0.00934,-0.06596189105362776,-0.7288567885542799,-0.20774804261282298,0.6490435744212492
110,2.7495980262756348,0.6216,-0.0195,0.4274,-9.578,0.194,1.484,-0.028967,-0.003147,0.020463,0.005249430881407002,-0.7413105169628287,-0.13789495669890414,0.6568227628765102
111,2.7759134769439697,0.6182,-0.0195,0.4284,-9.592,0.262,1.495,-0.012669,-0.00745,0.021112,0.10287267368863465,-0.7466292110653542,-0.04617741996882074,0.6556139718440278
112,2.8070294857025146,0.6215,-0.022,0.4338,-9.539,0.32,1.562,-0.011055,-0.005151,0.019416,0.20272242175844143,-0.7376046823975815,0.04894794353923071,0.642220406904698
113,2.8258559703826904,0.6167,-0.0181,0.4198,-9.587,0.364,1.532,-0.005726,-0.006162,0.007261,0.2608004665580016,-0.7265776343323307,0.10285248284573803,0.6272873541716188
114,2.849155902862549,0.6216,-0.0206,0.4274,-9.604,0.357,1.53,0.00447,-0.009145,-0.007479,0.24376903569213093,-0.7326647108858324,0.0802769624361252,0.6303448960389363
115,2.878739595413208,0.6182,-0.0206,0.4271,-9.562,0.237,1.524,0.009214,-0.016515,-0.008335,0.18213294102280017,-0.7463688648546043,0.009583335714635655,0.6400541141549011
116,2.9002110958099365,0.6226,-0.0206,0.4344,-9.62,0.247,1.61,0.001199,-0.015591,-0.007173,0.11740441807290286,-0.7542134655232546,-0.06511958295180892,0.6427578789533022
117,2.926287889480591,0.6159,-0.0197,0.419,-9.55,0.251,1.489,0.000815,-0.013519,-0.005853,0.06821744345896741,-0.7558726876588888,-0.12348302074350298,0.6393393496784864
118,2.952765464782715,0.6211,-0.0187,0.4269,-9.588,0.257,1.476,0.007308,-0.015895,-0.007111,0.01184801646368594,-0.7521799281434041,-0.1886241188466209,0.6312732546159353
119,2.9780941009521484,0.619,-0.0203,0.4271,-9.683,0.254,1.516,0.021434,-0.014798,-0.002476,-0.018725126784499557,-0.7474194348643041,-0.23205158464181466,0.6222263415183026
120,3.000692367553711,0.6236,-0.0211,0.4339,-9.572,0.215,1.693,0.033043,-0.012121,0.001396,-0.015065121347391408,-0.7462671871553974,-0.24081578896883862,0.62037575974346
121,3.0268115997314453,0.6161,-0.0184,0.4193,-9.509,0.134,1.702,0.004903,-0.010744,0.007495,0.007605623520761717,-0.7492812536792857,-0.228928802631682,0.6213785969127698
122,3.0516772270202637,0.6229,-0.0192,0.4261,-9.518,0.184,1.646,-0.019741,-0.007422,0.010774,0.042837851876686095,-0.7557644412854215,-0.19935005872656542,0.6222897892628808
123,3.0748841762542725,0.6205,-0.0195,0.4274,-9.559,0.382,1.572,-0.024961,-0.009555,0.008085,0.07544482009536607,-0.7623273851524037,-0.171755493353369,0.6194070450603685
124,3.1013572216033936,0.6242,-0.0209,0.4331,-9.646,0.458,1.53,0.006923,-0.012833,-0.007872,0.05904871100510117,-0.7625940365594351,-0.19587164165935642,0.6136757165851452
125,3.126512050628662,0.6174,-0.0175,0.4182,-9.649,0.363,1.638,0.024634,-0.010092,-0.018812,-0.02099392736380723,-0.748131310824031,-0.2827134141518174,0.5999432658486826
126,3.150563955307007,0.6247,-0.017,0.4253,-9.547,0.395,1.638,0.034108,-0.007389,-0.030286,-0.1431841157225654,-0.7043928306009519,-0.41067752733943264,0.5609572334332585
127,3.175212860107422,0.6211,-0.0181,0.4242,-9.575,0.32,1.649,0.0516,-0.009344,-0.041951,-0.30666034887675897,-0.597561991735582,-0.5776361193988782,0.46391336478441053
128,3.202422618865967,0.6268,-0.0187,0.4307,-9.682,0.081,1.749,0.059088,-0.006101,-0.033685,-0.43200657996334013,-0.4505890808779803,-0.7082084220411723,0.3298190807274014
129,3.227675437927246,0.6206,-0.0148,0.4185,-9.58,0.052,1.641,-4.9e-05,0.009498,-0.008256,-0.48135634976621816,-0.36905977895256914,-0.7523084317978425,0.25714386546269014
130,3.2507402896881104,0.6253,-0.0157,0.4253,-9.545,0.192,1.516,-0.00226,0.011302,0.001759,-0.4914821747708745,-0.3623525293806556,-0.7498987569629728,0.25455406231156696
131,3.276474952697754,0.6208,-0.0154,0.425,-9.563,0.237,1.596,0.001509,0.008055,0.007427,-0.47915790449456136,-0.39575834419749717,-0.7267422676766372,0.2926238403320124
132,3.3012077808380127,0.6283,-0.019,0.4323,-9.635,0.215,1.638,9.4e-05,0.007872,0.015255,-0.44414002784638534,-0.4553209607591878,-0.6852621427620732,0.35473688003233356
133,3.326035976409912,0.6201,-0.0162,0.4185,-9.566,0.197,1.629,-0.04001,0.010329,0.018638,-0.3922387687897223,-0.5254616879022485,-0.6242237822001828,0.4247157079046425
134,3.34965443611145,0.6263,-0.0181,0.4277,-9.591,0.388,1.581,-0.042431,0.013969,0.010934,-0.35298808744456567,-0.5735121409510683,-0.570672637132417,0.4699106037665911
135,3.3785033226013184,0.6234,-0.0179,0.4285,-9.621,0.343,1.6,-0.025397,0.016813,0.00195,-0.34581987580043494,-0.5867473555866312,-0.5477706434927085,0.48588422112788476
136,3.40791916847229,0.6276,-0.0198,0.4334,-9.623,0.334,1.656,-0.010055,0.018355,-0.00391,-0.35887089787759885,-0.5819138737300349,-0.543489612525218,0.4870389751284998
137,3.426091194152832,0.619,-0.0165,0.4212,-9.59,0.31,1.592,-0.002271,0.018755,-0.007072,-0.3883405728617151,-0.5619386000491888,-0.5534395801813174,0.4765723872959071
138,3.4495787620544434,0.6242,-0.0192,0.4277,-9.595,0.348,1.538,0.015335,0.015822,-0.021953,-0.45151840445537306,-0.5046339272501118,-0.596530688557893,0.4308443657689502
139,3.4788126945495605,0.6213,-0.0165,0.4282,-9.615,0.264,1.52,0.02149,0.012945,-0.028596,-0.537191631973148,-0.39712766424485474,-0.6644500741201674,0.33499383252704235
140,3.500771999359131,0.6265,-0.0168,0.4339,-9.6,0.222,1.593,0.024137,0.011886,-0.025051,-0.6055814375530696,-0.26968322380283355,-0.7161478884752992,0.21834441399504392
141,3.5256690979003906,0.6196,-0.0121,0.4196,-9.606,0.214,1.59,0.024974,0.01298,-0.018426,-0.6414865977762758,-0.17185482944129274,-0.7362431261225192,0.13002661923030645
142,3.5518109798431396,0.6229,-0.0143,0.4261,-9.597,0.288,1.58,0.033054,0.009654,-0.02059,-0.6629051439929924,-0.08310836958509621,-0.7423689914970606,0.05037905751574108
143,3.5744848251342773,0.6213,-0.013,0.428,-9.756,0.405,1.455,0.061733,0.00419,-0.035116,-0.669928548848903,0.048024021408789336,-0.7372653464798441,-0.07300165535716709
144,3.6023333072662354,0.625,-0.0155,0.4358,-9.656,0.104,1.48,0.071989,-0.000946,-0.043228,-0.6361684682269765,0.22931655497767367,-0.6940694257187061,-0.2469235305300396
145,3.6268136501312256,0.6183,-0.0092,0.4229,-9.532,0.06,1.741,0.025174,0.008551,-0.031836,-0.5550565629898254,0.40204076611217304,-0.5991930964217966,-0.4138152576528787
146,3.652169704437256,0.6237,-0.0103,0.4283,-9.53,0.138,1.678,0.011306,0.015546,-0.021538,-0.4754377978156789,0.5079909701334999,-0.5012336754147171,-0.5144597917245401
147,3.676025152206421,0.6226,-0.0106,0.431,-9.571,0.183,1.528,0.013025,0.018095,-0.011869,-0.43244666923039093,0.5574912529920725,-0.43630568444803086,-0.5584180609786946
148,3.700434684753418,0.626,-0.0114,0.4364,-9.533,0.313,1.595,0.023489,0.014969,-0.007308,-0.4061357639106519,0.5861709611857135,-0.3900017343420495,-0.5825426960708728
149,3.7317986488342285,0.6177,-0.0089,0.4221,-9.469,0.248,1.653,0.004959,0.01885,-0.001164,-0.4129578722385483,0.5889696099027848,-0.3794921231188631,-0.5818645227696133
150,3.7512216567993164,0.6229,-0.0105,0.4288,-9.566,0.193,1.707,-0.040424,0.022674,-0.004793,-0.4272427077864317,0.5894385900523107,-0.371207156223331,-0.5763948857936279
151,3.783780336380005,0.6216,-0.0095,0.4329,-9.837,0.112,1.349,-0.036484,0.030412,-0.009106,-0.38741223650669404,0.6273142334826043,-0.3009836624179173,-0.6048119099625198
152,3.801849365234375,0.625,-0.013,0.438,-9.717,0.146,1.43,-0.029371,0.032188,-0.010558,-0.3522230154494048,0.6574975348521188,-0.23380395506684307,-0.6236759171606809
153,3.8261008262634277,0.6177,-0.0086,0.4234,-9.58,0.19,1.56,-0.016654,0.027951,-0.004621,-0.34526907667303064,0.6712507694761831,-0.19492560008811655,-0.6262712508181042
154,3.8517682552337646,0.6229,-0.0098,0.4337,-9.617,0.232,1.49,-0.022063,0.025597,-0.005612,-0.33522313429440936,0.6842187853989398,-0.15662312354460287,-0.6284419632011884
155,3.93112850189209,0.62,-0.0089,0.4321,-9.561,0.215,1.498,-0.01361,0.024258,-0.009205,-0.3197589035556438,0.6977878965102667,-0.11389065413922606,-0.6307735045009493
156,3.938492774963379,0.6231,-0.0131,0.4393,-9.568,0.236,1.442,-0.005247,0.022523,-0.0104,-0.2920329686978371,0.7121831666006079,-0.060710204319992744,-0.6354731729158075
157,3.975127935409546,0.6167,-0.0089,0.4242,-9.591,0.194,1.536,0.001755,0.012893,-0.015896,-0.2287684668164048,0.7282808828682467,0.021826230685691228,-0.6455970569117967
158,3.975137948989868,0.6224,-0.0087,0.4302,-9.662,0.109,1.524,-0.015298,0.014495,-0.012975,-0.14590117515805,0.7372436677642984,0.12164699614817387,-0.6483722925581188
159,3.9790658950805664,0.6203,-0.0095,0.4353,-9.613,0.14,1.473,-0.044515,0.018761,-0.008401,-0.08590045105144861,0.7394109763287808,0.1997244255923661,-0.6371833915094431
160,4.000000238418579,0.6234,-0.0106,0.4391,-9.608,0.197,1.38,-0.036957,0.016406,-0.008728,-0.03229948882099776,0.7373068594961656,0.2699094213892502,-0.6184531042909591
161,4.02885365486145,0.6164,-0.0087,0.4272,-9.634,0.137,1.391,-0.025317,0.01059,-0.006505,0.014598141621008032,0.7298915639925152,0.3295948518117199,-0.5986755655052103
162,4.051985502243042,0.6219,-0.0111,0.4334,-9.622,0.15,1.507,-0.005283,0.003895,-0.005931,0.05732345011794865,0.7178324912812708,0.38072125313202765,-0.5800705680700218
163,4.083945989608765,0.6205,-0.0101,0.4361,-9.614,0.165,1.508,-0.005826,0.005508,-0.000171,0.07246852486729435,0.7122775846471315,0.40292650958899345,-0.5701396172721533
164,4.102839469909668,0.625,-0.0103,0.4372,-9.632,0.201,1.421,-0.002084,0.006845,-0.002057,0.07805255858791868,0.7095910064018235,0.4163049554673335,-0.5630973146667175
165,4.127888917922974,0.618,-0.0081,0.4264,-9.62,0.139,1.482,0.001866,0.007859,0.001229,0.07467300326845075,0.7093910484456039,0.42191222312256854,-0.5596234081486308
166,4.152375936508179,0.6234,-0.0087,0.4337,-9.598,0.132,1.504,0.001309,0.008803,-0.003389,0.07995634538579155,0.7052318015337475,0.43648122838651415,-0.5529369097864717
167,4.178744792938232,0.6203,-0.0098,0.4348,-9.604,0.167,1.491,-0.014173,0.007499,-0.005888,0.10080226205868414,0.6952736405847152,0.4666920898303069,-0.5372447877474005
168,4.203125,0.6252,-0.0117,0.4407,-9.613,0.151,1.457,-0.014335,0.006701,-0.005111,0.1262762093471925,0.682744179498425,0.5001071524697901,-0.5175012467255363
169,4.229064702987671,0.6169,-0.0078,0.4277,-9.593,0.109,1.432,-0.0131,0.003617,-0.002745,0.14384247422416255,0.6735979581286551,0.5240072765885763,-0.5009905263537436
170,4.250831365585327,0.6213,-0.0095,0.4326,-9.555,0.091,1.456,-0.015935,0.000685,0.006667,0.14441890232601814,0.6741759742585404,0.5264308710592449,-0.4974941953222174
171,4.276469707489014,0.6216,-0.0095,0.4359,-9.652,0.07,1.479,-0.02135,0.001735,0.016507,0.09324359683193423,0.7032157080794724,0.47587855957873726,-0.5199354730092915
172,4.301594257354736,0.6242,-0.0112,0.4421,-9.673,0.112,1.458,-0.040796,0.007071,0.025379,-0.0031106927844665733,0.7441167403494026,0.3788152033612331,-0.5502541612969121
173,4.326566219329834,0.6174,-0.0087,0.4288,-9.627,0.241,1.403,-0.038345,0.006338,0.023091,-0.12473762764046467,0.773861111266824,0.25641693790019743,-0.5655350198505759
174,4.3524041175842285,0.6211,-0.01,0.4315,-9.58,0.174,1.358,-0.027803,0.004459,0.020584,-0.23029860277013436,0.7804151980369316,0.1489867305195685,-0.5618875566910077
175,4.377785682678223,0.6203,-0.0133,0.4374,-9.611,0.23,1.415,-0.023096,0.000934,0.013489,-0.30055459495094194,0.7758252229499967,0.07646498116330891,-0.5494681660880436
176,4.4009480476379395,0.6247,-0.0128,0.4404,-9.59,0.21,1.406,-0.00428,-0.003124,0.007909,-0.347651521655049,0.7668946389724738,0.02674074859555603,-0.5387912068424628
177,4.425757884979248,0.6169,-0.0089,0.4285,-9.624,0.105,1.453,0.000933,-0.005807,0.010252,-0.38509367751295615,0.7554880887070953,-0.013921923357152338,-0.5298554401072852
178,4.456174850463867,0.6205,-0.0114,0.4334,-9.606,0.052,1.505,-0.018022,-0.002746,0.019141,-0.44833572862568394,0.7319932904996302,-0.08185074173174697,-0.5064398811104472
179,4.47717809677124,0.62,-0.0128,0.4366,-9.592,0.145,1.433,-0.031344,-0.002346,0.026338,-0.5486821426367302,0.679559719543132,-0.18961466510562447,-0.44854517353652223
180,4.509802579879761,0.6239,-0.0144,0.4393,-9.613,0.213,1.429,-0.018573,-0.000406,0.024449,-0.649036759129184,0.5994232560671517,-0.29574854457863997,-0.3632847970457276
181,4.532212972640991,0.6164,-0.0119,0.4282,-9.599,0.183,1.46,-0.020626,-0.002565,0.023595,-0.726608030088515,0.5073298942685336,-0.3777281938208255,-0.2682882043348592
182,4.549485921859741,0.6205,-0.0119,0.4331,-9.663,0.28,1.455,-0.011474,-0.004239,0.01862,-0.7788046599980839,0.4156019722806099,-0.43613198290866795,-0.17472033563924275
183,4.579102993011475,0.6195,-0.0147,0.4366,-9.609,0.247,1.489,-0.000392,-0.005008,0.018457,-0.8133793797909392,0.3240029564758976,-0.4754866790835596,-0.08572331503081633
184,4.610825061798096,0.6226,-0.0168,0.4388,-9.592,0.214,1.517,0.007321,-0.004276,0.007681,-0.8288931850258185,0.2635504005178376,-0.49258719420720065,-0.028898621207927272
185,4.633546829223633,0.6167,-0.0106,0.4285,-9.581,0.254,1.56,0.00226,-0.000168,0.005966,-0.833892344009678,0.23974078924516312,-0.49709059457371074,-0.006989517902240755
186,4.65651535987854,0.62,-0.0133,0.4336,-9.65,0.197,1.462,-0.002164,0.001616,0.00652,-0.8380509203088455,0.21966528916181935,-0.49922864967729874,0.013732117401637878
187,4.6756956577301025,0.6187,-0.0133,0.4382,-9.587,0.168,1.473,-0.010928,0.00357,0.011316,-0.8430240246669529,0.18373963195502058,-0.5027982589121646,0.05238465727922903
188,4.6994404792785645,0.6218,-0.0171,0.4396,-9.593,0.185,1.488,-0.014671,0.00463,0.010662,-0.8459328181093974,0.1368047324837928,-0.5048462563257974,0.1039826422503217
189,4.728732585906982,0.6151,-0.0119,0.4282,-9.616,0.219,1.459,-0.014881,0.005116,0.013825,-0.8440592697308203,0.07369960918641788,-0.5019345230348695,0.17376435587600067
190,4.752013206481934,0.6185,-0.0141,0.4312,-9.612,0.148,1.392,-0.017131,0.002426,0.021642,-0.8292035852203524,-0.02000551170999737,-0.48752620838525457,0.2726525075924157
191,4.779388427734375,0.6179,-0.0158,0.4376,-9.637,0.202,1.437,-0.010128,0.001299,0.023043,-0.7906089628632706,-0.13559468595744623,-0.45068060643083196,0.3917123178654235
192,4.799778938293457,0.6228,-0.0158,0.4401,-9.634,0.264,1.44,-0.015807,0.001444,0.022842,-0.730733929995079,-0.24317501208582257,-0.3931243681371557,0.5023415852064901
193,4.825160264968872,0.6145,-0.0144,0.4287,-9.605,0.262,1.42,-0.007992,-6.2e-05,0.022225,-0.6563179789018437,-0.3340920634584361,-0.32119348411638504,0.5953687508304923
194,4.854708433151245,0.6195,-0.0146,0.432,-9.624,0.219,1.45,-0.00723,-0.002208,0.02242,-0.5723540980600642,-0.4084489564391156,-0.24092952808131168,0.6689792215877595
195,4.8774473667144775,0.6181,-0.0166,0.4385,-9.569,0.228,1.475,-0.006889,0.002129,0.023437,-0.47057432299105384,-0.4715752557114774,-0.14178178249462023,0.7321710940038634
196,4.902134895324707,0.6208,-0.0166,0.4382,-9.618,0.265,1.437,-0.010286,-0.001043,0.019861,-0.3651205390657423,-0.5132603412735091,-0.03868651182335894,0.7757281533057078
197,4.928695440292358,0.6156,-0.0149,0.4285,-9.63,0.331,1.461,-0.003452,-0.00081,0.017541,-0.2734822516197075,-0.5345294676320589,0.052162904415666705,0.7979753991727594
198,4.949485540390015,0.6179,-0.016,0.4331,-9.626,0.243,1.469,-0.001994,-9.6e-05,0.012232,-0.20978445585533087,-0.5420221272776804,0.11586070018004344,0.8054680588183809
199,4.976476669311523,0.6181,-0.0171,0.4379,-9.587,0.282,1.504,-0.005764,0.000685,0.014375,-0.13892016584106923,-0.5428386861949734,0.18606535841092445,0.8070979065096251
200,5.00521993637085,0.6226,-0.0193,0.4398,-9.607,0.303,1.427,-0.002117,-0.002099,0.007235,-0.08733438597478851,-0.5392554095345132,0.23686309523700652,0.8034128343690533
201,5.033109664916992,0.6148,-0.0155,0.4293,-9.651,0.287,1.433,0.000663,-0.001385,0.003163,-0.06229334657680652,-0.5357760310076055,0.26269217767518716,0.8000352513222571
202,5.053784370422363,0.6195,-0.0163,0.4309,-9.611,0.269,1.454,0.003692,-0.003728,0.002521,-0.05171821335206478,-0.5355313213085569,0.27353211409419986,0.7973152531240947
203,5.0788726806640625,0.6194,-0.0171,0.4387,-9.604,0.241,1.497,0.002592,-0.004842,0.002533,-0.0475281982393298,-0.5366080589063054,0.2774413949702638,0.7954992984571917
204,5.100285291671753,0.6221,-0.0179,0.4398,-9.584,0.255,1.46,0.007254,-0.00587,5.7e-05,-0.0502197844216164,-0.5397072316969539,0.2736404445124046,0.7945533238453606
205,5.126237869262695,0.6153,-0.0157,0.4285,-9.593,0.289,1.451,0.011861,-0.008502,-0.001347,-0.06503791946625195,-0.5454123011292192,0.25788941441323376,0.7948512695731389
206,5.1511194705963135,0.6203,-0.0152,0.4293,-9.615,0.338,1.43,0.017292,-0.008814,-0.009339,-0.11223980717246321,-0.5542360762659472,0.21029003260766443,0.79749777406403
207,5.17547345161438,0.62,-0.0144,0.4398,-9.631,0.355,1.403,0.040175,-0.012211,-0.016653,-0.18958939531212804,-0.5621054607135201,0.133842029813136,0.793838537283699
208,5.204664468765259,0.6223,-0.0163,0.438,-9.569,0.382,1.396,0.06122,-0.013485,-0.025808,-0.3025457668625937,-0.5578730150698957,0.024434953772891232,0.7724290847996763
209,5.229804754257202,0.6182,-0.0143,0.428,-9.588,0.281,1.489,0.080208,-0.014621,-0.033781,-0.46023556534895615,-0.5175337315909528,-0.12617676085747814,0.7102263625584346
210,5.249542236328125,0.62,-0.0116,0.4302,-9.629,0.224,1.582,0.071831,-0.018721,-0.034454,-0.6236083817627237,-0.4225593632766844,-0.2851108174491526,0.592678658697912
211,5.278990268707275,0.6213,-0.013,0.4364,-9.665,0.134,1.507,0.055865,-0.01374,-0.022405,-0.7350050303574163,-0.30727788234596537,-0.3958383759225161,0.4567930477987787
212,5.299879789352417,0.6252,-0.012,0.4375,-9.677,0.109,1.445,0.028682,-0.007801,-0.009395,-0.780355404265268,-0.2372325954964224,-0.44114805305833377,0.3743721864012639
213,5.328352928161621,0.6174,-0.0108,0.4274,-9.606,0.142,1.442,0.007121,-0.003543,-0.000591,-0.7920515263810446,-0.2160515164359743,-0.45286818642752463,0.34768739914615576
214,5.350883483886719,0.6219,-0.0108,0.4296,-9.561,0.287,1.408,0.003667,-0.008363,0.00318,-0.784295876783463,-0.232518829189333,-0.44663279713779624,0.3624004915197399
215,5.377227544784546,0.6223,-0.0128,0.4374,-9.559,0.288,1.487,0.027127,-0.014107,-0.001574,-0.7816467565853221,-0.23866172198408503,-0.4501788340627385,0.35973316185910725
216,5.4010398387908936,0.6239,-0.0128,0.4385,-9.61,0.207,1.565,0.015718,-0.014427,0.001413,-0.7849582399801917,-0.2299111603350868,-0.4631408547307984,0.3412945480370282
217,5.4275805950164795,0.6195,-0.0105,0.4269,-9.632,0.21,1.556,0.007163,-0.012453,0.00204,-0.7846852758892705,-0.22638256550650337,-0.472349980846094,0.3315199050313086
218,5.450694561004639,0.6229,-0.0084,0.4289,-9.606,0.219,1.49,-0.001811,-0.009086,0.005193,-0.7793091770333764,-0.23372108952466664,-0.4751471342516557,0.33509231521388744
219,5.47693657875061,0.6242,-0.0117,0.438,-9.605,0.227,1.541,-0.005071,-0.006076,0.003461,-0.7763667571237114,-0.23658772815701395,-0.4775338306192959,0.33651500105162735
220,5.501401424407959,0.626,-0.0117,0.4359,-9.613,0.285,1.577,-0.011944,-0.002638,0.002391,-0.7768308695285049,-0.23216081795507543,-0.4817654840376329,0.3324713117608836
221,5.527538776397705,0.6208,-0.0105,0.428,-9.642,0.277,1.525,-0.017111,-0.001466,0.003213,-0.7766195315989034,-0.22914033196172318,-0.48437109082229146,0.33127248268335674
222,5.552288293838501,0.6242,-0.0108,0.4305,-9.603,0.245,1.529,-0.011068,-0.005367,0.002427,-0.7755575147025557,-0.2280285084690982,-0.48613618252014074,0.33194148996245976
223,5.575361251831055,0.625,-0.0111,0.4391,-9.583,0.182,1.554,-0.027683,-0.002845,0.005014,-0.7758435978887742,-0.2233899013878845,-0.48849783801342583,0.33095849562916774
224,5.603843688964844,0.6273,-0.0149,0.4353,-9.614,0.231,1.44,-0.026334,0.000548,0.006036,-0.771526541251879,-0.22893257119005977,-0.4849362701492027,0.34230613182646935
225,5.627196550369263,0.6208,-0.0105,0.4256,-9.619,0.262,1.487,-0.027411,-0.000302,0.007788,-0.7612130180583025,-0.24600695697595365,-0.47619169534484385,0.36507093494635384
226,5.650007486343384,0.6263,-0.0111,0.4264,-9.637,0.251,1.482,-0.027165,-0.003617,0.005347,-0.7492662970529392,-0.2641896657388476,-0.46757448759350345,0.38752797985312654
227,5.676081657409668,0.6271,-0.0111,0.4367,-9.632,0.292,1.484,-0.020203,-0.004371,0.004957,-0.7425011284919195,-0.27143653711777427,-0.4648293145671314,0.39868281731821364
228,5.699861764907837,0.6286,-0.0157,0.4356,-9.587,0.251,1.527,-0.015845,-0.003856,0.001979,-0.7411203108963619,-0.27060308641665914,-0.46660936420066595,0.39973785865102685
229,5.725558042526245,0.6216,-0.0116,0.4267,-9.591,0.295,1.552,-0.032405,-0.001832,0.000554,-0.747290247724425,-0.25440440485682786,-0.4752151323912203,0.38859524236897947
230,5.756134748458862,0.6253,-0.0108,0.4278,-9.615,0.239,1.548,-0.032003,-0.003346,-0.000314,-0.7580392621173253,-0.22662147002386912,-0.4900677791869407,0.3658589321249675
231,5.776889324188232,0.6273,-0.013,0.4345,-9.632,0.233,1.478,-0.029481,-0.002247,0.000936,-0.767623740184133,-0.19926614643332682,-0.5026351145901323,0.34409989533898316
232,5.802315950393677,0.6289,-0.0146,0.4351,-9.6,0.218,1.513,-0.035229,-0.002109,0.002907,-0.7710905305038275,-0.18482377077278375,-0.5086025767641186,0.33553388269078643
233,5.827765703201294,0.6232,-0.0121,0.4248,-9.584,0.234,1.503,-0.022438,-0.003159,0.004171,-0.769182622665983,-0.18275604601746762,-0.5107902281168174,0.33771535868703256
234,5.849803924560547,0.6266,-0.0124,0.4245,-9.592,0.258,1.538,-0.027251,-0.001403,0.005439,-0.7671428784235143,-0.18261769757878527,-0.5112628006137806,0.34169127779863273
235,5.876037836074829,0.6276,-0.0152,0.435,-9.612,0.221,1.448,-0.018324,-0.002184,0.006438,-0.7588623133856549,-0.19720060866900566,-0.5058970365729792,0.35959435152713887
236,5.9013590812683105,0.6291,-0.0146,0.4348,-9.634,0.255,1.494,-0.01311,-0.006141,0.006983,-0.7481873983461883,-0.21573926656990228,-0.500407272618272,0.37850329896393947
237,5.9264140129089355,0.6234,-0.0132,0.4264,-9.629,0.207,1.523,-0.019718,-0.003234,0.012668,-0.7302040418032898,-0.24642561049223877,-0.4888205118867037,0.408816563982537
238,5.953396797180176,0.6258,-0.0143,0.4248,-9.586,0.271,1.558,-0.017425,-0.001237,0.007474,-0.7114196787144043,-0.27574148179207414,-0.4732235093450425,0.44035007228359524
239,5.975550889968872,0.6286,-0.0144,0.4348,-9.58,0.23,1.454,-0.013479,-0.001521,0.003631,-0.6989986879212408,-0.2935590935147918,-0.4621269954660246,0.46006796558845775
240,5.999520301818848,0.6307,-0.0146,0.4345,-9.616,0.303,1.521,-0.004293,-0.004516,0.002649,-0.6926537109154091,-0.30188622341923055,-0.4576626840944042,0.4686580976066591
241,6.026663303375244,0.6247,-0.0143,0.424,-9.666,0.117,1.528,-0.009903,-0.003304,0.011933,-0.6715552067346481,-0.33079869980616333,-0.4398003005874505,0.49614667198049833
242,6.058321714401245,0.6266,-0.0132,0.4259,-9.639,0.186,1.497,-0.020608,0.000247,0.021636,-0.6205166302581204,-0.38901097909597376,-0.3921317966797435,0.5566526958064745
243,6.076119422912598,0.6286,-0.0154,0.435,-9.576,0.246,1.511,-0.028713,0.004003,0.025157,-0.5264790112530483,-0.4698265240968392,-0.3010627285120801,0.6414391019153387
244,6.100133180618286,0.6294,-0.0157,0.4318,-9.595,0.352,1.503,-0.009715,-0.003043,0.022779,-0.41153432812082813,-0.5375352063553879,-0.1901787283190621,0.7110045358516032
245,6.125524520874023,0.6247,-0.0146,0.4234,-9.665,0.305,1.479,-0.010805,-0.003351,0.020559,-0.304040844049133,-0.5795050919259698,-0.08735982575362325,0.7510667576361375
246,6.150271654129028,0.6266,-0.0148,0.4218,-9.616,0.339,1.485,-0.008456,-0.001822,0.014858,-0.21077581812838686,-0.6002810016996298,0.0026215418011196756,0.771511115285699
247,6.188116073608398,0.6291,-0.0184,0.4364,-9.602,0.371,1.614,-0.004216,-0.002188,0.008178,-0.159336061562192,-0.6064774214355722,0.05175638221313025,0.7772505604211021
248,6.201763391494751,0.6291,-0.0184,0.4307,-9.566,0.328,1.58,-0.012749,-0.003144,-0.00019,-0.13984227371215063,-0.6082635528928857,0.06824396849223033,0.7783330581888264
249,6.226552486419678,0.6245,-0.014,0.424,-9.625,0.323,1.482,-0.02482,-0.000365,-0.005179,-0.1688022762558442,-0.6034361341556757,0.039801230569428275,0.7783228671774062
250,6.251796722412109,0.6268,-0.0159,0.4232,-9.624,0.293,1.518,-0.017032,0.00354,-0.008692,-0.2182921062325289,-0.5927562249266405,-0.0061067182485232685,0.7752105018377378
251,6.282679319381714,0.6291,-0.0171,0.4361,-9.631,0.279,1.57,-0.008495,0.004849,-0.011396,-0.28943047374838027,-0.5737355937925859,-0.0719789756795024,0.762808295931151
252,6.300355911254883,0.6299,-0.0181,0.4321,-9.578,0.22,1.512,-0.016317,0.008665,-0.011047,-0.3606193136440601,-0.5460310068037791,-0.1360972154434737,0.7438288769497128
253,6.32631254196167,0.6232,-0.0149,0.4258,-9.563,0.205,1.513,-0.018775,0.00547,-0.007096,-0.4166263897865456,-0.5167811050939443,-0.1868045886622876,0.7241987202460555
254,6.352250814437866,0.6255,-0.0148,0.4226,-9.559,0.175,1.516,-0.015501,0.008109,-0.003237,-0.4523603024418799,-0.49399977745166285,-0.2173079259684676,0.7100081985186378
255,6.386412143707275,0.6276,-0.0171,0.4358,-9.646,0.301,1.498,-0.009855,0.005353,0.002146,-0.46208101468410023,-0.4853127106353614,-0.22289536426978404,0.7080044952903269
256,6.40131688117981,0.6281,-0.0179,0.4334,-9.655,0.214,1.532,-0.007287,0.003886,0.007308,-0.4455399107210209,-0.49270401294540367,-0.20339679657655307,0.7192820633969657
257,6.425803184509277,0.6226,-0.0149,0.4258,-9.618,0.308,1.573,-0.008463,0.004834,0.00638,-0.41821996914656606,-0.5040973261907871,-0.17310240489534154,0.7355361993496947
258,6.450894832611084,0.6242,-0.0157,0.4245,-9.621,0.294,1.535,-0.006271,0.009185,0.006123,-0.38003484193278464,-0.517461357224676,-0.13073370872238438,0.7554574508865541
259,6.475931406021118,0.626,-0.0166,0.438,-9.619,0.333,1.529,-0.004778,0.009222,-0.000883,-0.3709154243171043,-0.5167259165169557,-0.11528628371476352,0.7629712628864955
260,6.5000221729278564,0.627,-0.0182,0.4358,-9.617,0.289,1.548,-0.002232,0.005541,-0.007846,-0.3938883814226499,-0.5047865108099558,-0.1314778895642241,0.7568065050198056
261,6.526385307312012,0.6219,-0.0151,0.4256,-9.619,0.306,1.502,-0.009407,0.003188,-0.009032,-0.44713759455349855,-0.476937075318671,-0.18008285555031225,0.7349620145696163
262,6.550048112869263,0.6232,-0.0146,0.4223,-9.605,0.249,1.513,-0.007617,0.005456,-0.007809,-0.4970574545367963,-0.4453002560463682,-0.22429087829801553,0.7101655939052133
263,6.576201438903809,0.6262,-0.0185,0.4388,-9.622,0.297,1.481,-0.0051,0.008854,-0.010593,-0.5493241260356367,-0.40574763932252994,-0.2688074258196472,0.6792307601718233
264,6.600519895553589,0.6268,-0.0171,0.432,-9.6,0.259,1.513,0.00208,0.006998,-0.012207,-0.6022046051552677,-0.3595054416720808,-0.31223840770782624,0.640790627030414
265,6.625707626342773,0.6206,-0.0132,0.4266,-9.618,0.274,1.551,0.003181,0.002618,-0.014215,-0.6620829992717198,-0.29744432533983917,-0.3649971220640805,0.5830523786791636
266,6.649912595748901,0.6232,-0.0132,0.4259,-9.591,0.23,1.518,-0.009201,0.005948,-0.019263,-0.7288742637280197,-0.2046770689599594,-0.4251640114212782,0.49606972141934286
267,6.676279783248901,0.6249,-0.0152,0.4396,-9.59,0.253,1.454,-0.009083,0.008472,-0.017171,-0.7787530507600231,-0.10393086428592099,-0.46715571607511996,0.40559536279287023
268,6.699477672576904,0.626,-0.0155,0.4345,-9.619,0.209,1.489,-0.00681,0.006931,-0.019142,-0.8155421726404838,0.012313675135713326,-0.4953932713374295,0.2988726229735531
269,6.724588394165039,0.6203,-0.0135,0.4293,-9.622,0.206,1.474,-0.003723,0.003971,-0.018739,-0.8324217282533697,0.1321807629412698,-0.5047446635936943,0.18664173384756458
270,6.752031326293945,0.6219,-0.0135,0.4248,-9.625,0.243,1.435,0.001556,0.001092,-0.020396,-0.8293417806653827,0.24818783431944813,-0.4947879549350849,0.07602558378434679
271,6.7759153842926025,0.6241,-0.0152,0.4412,-9.611,0.236,1.516,0.009404,0.002001,-0.022816,-0.8038904579148364,0.3724586790132156,-0.4614442025095815,-0.04586842128852475
272,6.801120758056641,0.6244,-0.0141,0.4348,-9.613,0.248,1.477,0.006816,-0.001395,-0.021959,-0.7542758226489414,0.4905397197383367,-0.4043627329165079,-0.16410224542823748
273,6.826116323471069,0.62,-0.0116,0.4288,-9.612,0.167,1.462,-0.001578,-0.003716,-0.020793,-0.6811825524468473,0.5967764677014799,-0.3268719627561613,-0.2701904842952049
274,6.850484848022461,0.6208,-0.0122,0.4285,-9.624,0.178,1.444,-0.001531,-0.00428,-0.016465,-0.6020951120581599,0.6752943125070427,-0.2458269676131674,-0.34789103110805725
275,6.880547285079956,0.6236,-0.0123,0.4412,-9.625,0.235,1.482,-0.00497,-0.003719,-0.014318,-0.518009583662227,0.7353134136108381,-0.16027416625816676,-0.40656173778199084
276,6.902853012084961,0.6239,-0.0141,0.4358,-9.614,0.16,1.488,-0.0048,-0.006361,-0.015721,-0.4292979327831853,0.779220519030178,-0.07205151709463181,-0.4509182259731643
277,6.92866063117981,0.6187,-0.0122,0.4288,-9.559,0.136,1.483,-0.004415,-0.006642,-0.00683,-0.3613804218942364,0.8023264445018953,-0.005928678220386008,-0.4750171764252848
278,6.95085883140564,0.6209,-0.0094,0.4242,-9.608,0.188,1.515,-0.009577,-0.003024,-0.002862,-0.3203102510977324,0.8126865087668909,0.03269503491996137,-0.485667598467895
279,6.97580361366272,0.6236,-0.0128,0.4412,-9.648,0.251,1.449,-0.012648,-0.002707,-0.004823,-0.28173451924064624,0.8213799016641051,0.06994203195694734,-0.4909876067440403
280,7.004139423370361,0.6224,-0.0133,0.4353,-9.676,0.139,1.432,-0.008133,-0.00639,-0.007221,-0.23207339598684898,0.827906272414942,0.11649997852666413,-0.4971326764299586
281,7.029392242431641,0.6185,-0.0103,0.4272,-9.592,0.153,1.51,-0.013888,-0.004092,-0.00266,-0.1933761892206853,0.8306055562408821,0.1514524503268822,-0.4997621581054773
282,7.050698757171631,0.6193,-0.01,0.4237,-9.552,0.183,1.548,-0.018379,-0.00389,-0.002848,-0.1645460819625524,0.8321166157031838,0.1758624750391508,-0.4995787371922038
283,7.075545072555542,0.6231,-0.0117,0.4399,-9.623,0.247,1.51,-0.019276,-0.001414,-0.003044,-0.12586910775046803,0.8325442492326369,0.21038980009773342,-0.49675262736960135
284,7.102519989013672,0.6224,-0.012,0.4364,-9.607,0.225,1.486,-0.01508,0.001027,-0.005592,-0.08903598609046406,0.8310353928844437,0.2457579146678153,-0.4909743540475652
285,7.128993511199951,0.6167,-0.0103,0.4293,-9.608,0.196,1.446,-0.014298,-0.002015,-0.007559,-0.03195086399565755,0.8235611532865479,0.3015010198183654,-0.47939889876359537
286,7.15179443359375,0.618,-0.0105,0.4258,-9.617,0.159,1.493,-0.012923,-0.002834,-0.007152,0.028307907997654924,0.8097667525528227,0.3591692208113271,-0.4631133118650726
287,7.182904481887817,0.6215,-0.0128,0.4426,-9.591,0.172,1.517,-0.010452,-0.007395,-0.003082,0.07331116444999977,0.7956238719113405,0.40117357979227997,-0.4479596929283249
288,7.20015025138855,0.6203,-0.0111,0.4358,-9.624,0.102,1.537,-0.012566,-0.004868,-0.003794,0.11556606861456398,0.7791207023978073,0.43969501465920013,-0.4316059649309391
289,7.225741863250732,0.6167,-0.0103,0.4288,-9.614,0.176,1.538,-0.022343,-0.000685,0.000248,0.1399340608905184,0.770458091380499,0.4592456926993922,-0.41941170914277365
290,7.250612258911133,0.6169,-0.0094,0.4229,-9.591,0.245,1.525,-0.01359,-0.001758,-0.000383,0.15281077302864643,0.7665710057310124,0.4677988514341012,-0.4125312053843526
291,7.277747869491577,0.6213,-0.0114,0.4391,-9.606,0.175,1.511,-0.008302,-0.004549,-0.002462,0.1761506490887706,0.7549945020865414,0.4889242113380962,-0.39988419100049555
292,7.30401086807251,0.6211,-0.0133,0.4328,-9.607,0.173,1.5,-0.01159,-0.002833,-0.005246,0.21107869924332537,0.7348562566896039,0.5211968111278318,-0.37919117711263856
293,7.326632022857666,0.6161,-0.0095,0.4283,-9.616,0.164,1.503,-0.022283,0.001863,-0.002243,0.24331992455922213,0.714834320030003,0.551344779165651,-0.35471995109736515
294,7.350243091583252,0.6167,-0.0076,0.4253,-9.621,0.201,1.525,-0.012199,0.001344,-0.006627,0.279445039957407,0.6879470051730034,0.5871517082262282,-0.32232322169480887
295,7.375681638717651,0.6213,-0.0114,0.4399,-9.627,0.156,1.447,-0.007582,0.00072,-0.007029,0.31658801950920207,0.6544280612024108,0.6247764785924885,-0.2848689003939606
296,7.401358127593994,0.6211,-0.0117,0.4337,-9.58,0.143,1.501,-7.1e-05,-0.000122,-0.003256,0.33883724248476654,0.6301966087387442,0.648914243375641,-0.25875057909833743
297,7.4275383949279785,0.6159,-0.0103,0.4304,-9.591,0.133,1.488,-0.012583,0.001953,-0.001471,0.3537346412928814,0.6136409445847596,0.6644411737001785,-0.23839991898163373
298,7.452693223953247,0.6162,-0.0084,0.4253,-9.626,0.148,1.505,-0.013528,0.001734,-0.002544,0.37246223613267326,0.5921195170631481,0.6824423748123702,-0.21198765348105794
299,7.475850820541382,0.6213,-0.0112,0.4385,-9.675,0.222,1.5,-0.009891,0.000105,-0.001474,0.38492682900629965,0.5766997711230606,0.6947302279945478,-0.19130765956544532
300,7.5001537799835205,0.6213,-0.0117,0.4345,-9.604,0.129,1.5,-0.011461,0.002415,0.000861,0.3915314841184432,0.5672349909331112,0.7022438981946817,-0.17832854357466177
301,7.525986909866333,0.6164,-0.01,0.4293,-9.596,0.149,1.442,-0.015215,0.002373,0.000793,0.39774839802410045,0.5600631808817644,0.7078053977619383,-0.164733008801898
302,7.554580926895142,0.6154,-0.0097,0.4229,-9.6,0.195,1.469,-0.007779,0.00251,-0.001946,0.4003262155370264,0.5571577886135661,0.7104329863050309,-0.15684097586650964
303,7.578840255737305,0.621,-0.0098,0.4426,-9.629,0.16,1.528,-0.003651,-0.001482,-0.004765,0.41415825120381616,0.5339074060591985,0.7252766561519495,-0.13186962029209606
304,7.6044676303863525,0.62,-0.0117,0.4342,-9.624,0.15,1.485,-0.009857,-0.001366,-0.002927,0.4293989193944882,0.5074290861313121,0.7399121310887873,-0.10325855334274484
305,7.62402606010437,0.6159,-0.0111,0.4304,-9.611,0.123,1.446,-0.009293,0.003163,0.00127,0.4349412705518952,0.49711654131963817,0.7454336930683109,-0.0896094010449951
306,7.657891511917114,0.6146,-0.0081,0.4237,-9.592,0.175,1.562,-0.009054,0.002522,0.004153,0.4332181044531557,0.5012753035452017,0.743652212645547,-0.08959090722312552
307,7.677330493927002,0.6208,-0.0114,0.4412,-9.617,0.203,1.478,-0.013262,0.002255,0.00091,0.433926532591162,0.49959541219591574,0.7450759459073811,-0.08351061762689604
308,7.703850030899048,0.62,-0.0111,0.4358,-9.617,0.192,1.504,-0.006718,0.001635,-7.7e-05,0.43597708725069506,0.4957064042826963,0.7473880968228427,-0.07490108726212841
309,7.7243874073028564,0.6156,-0.0092,0.4315,-9.623,0.164,1.5,-0.007179,-0.000386,-0.00019,0.43970213094727395,0.48736206641842983,0.7516511065334142,-0.06450477737251889
310,7.757889270782471,0.6154,-0.0108,0.4247,-9.614,0.163,1.501,-0.009764,0.001529,0.001936,0.43988505303123226,0.4880173749331077,0.7513025837439395,-0.062326635901430616
311,7.77568507194519,0.6205,-0.012,0.4439,-9.587,0.196,1.48,-0.010599,0.001819,0.001109,0.440198760427323,0.48995414013994176,0.7499941698140665,-0.06065259370288856
312,7.799654245376587,0.62,-0.012,0.4364,-9.587,0.175,1.491,-0.008652,0.001156,-0.000205,0.44119677968824367,0.4873024563160005,0.751612407969479,-0.05441053066674842
313,7.827538251876831,0.6159,-0.0098,0.4312,-9.643,0.146,1.496,-0.008854,0.00077,-0.003681,0.44884274052829953,0.4701581906309675,0.7592028040825622,-0.03320500460525827
314,7.849873304367065,0.6154,-0.01,0.422,-9.644,0.175,1.482,-0.006232,0.000246,-0.003779,0.45750733575623237,0.4473693665883246,0.7684407840170232,-0.006815352294478466
315,7.876285791397095,0.621,-0.0131,0.4412,-9.588,0.15,1.503,-0.009718,0.002367,-0.005623,0.4679344726415265,0.4151664607113417,0.7796425826465085,0.02883717285720999
316,7.9021546840667725,0.62,-0.0119,0.4339,-9.598,0.107,1.514,-0.012795,0.005346,-0.003659,0.4751250920752669,0.3863910605575995,0.787879662706347,0.06483619587372141
317,7.925375938415527,0.6153,-0.0103,0.4315,-9.595,0.216,1.512,-0.015293,0.003406,-0.001617,0.47931123511183216,0.36759527985550133,0.7917451739008765,0.09096169374080759
318,7.951127529144287,0.6141,-0.0108,0.4228,-9.64,0.156,1.487,-0.000977,0.002815,-0.003462,0.48073310726582164,0.34977554626611934,0.7960943196925263,0.11307776512683362
319,7.976060390472412,0.6195,-0.0104,0.442,-9.602,0.144,1.489,-0.005028,0.003593,-0.003626,0.4840941401750505,0.31665316121046805,0.8017792365259191,0.15011227404682898
320,8.00671100616455,0.6195,-0.0114,0.4364,-9.569,0.141,1.511,-0.005001,0.002762,-0.005343,0.48460131637837245,0.28520640514744966,0.8054578745030125,0.18723376572698205
321,8.025916576385498,0.6169,-0.0087,0.431,-9.61,0.119,1.531,-0.006694,0.001937,-0.004694,0.48486397566689166,0.25586107428479976,0.806709590469362,0.2205939083725537
322,8.049910545349121,0.6156,-0.0083,0.4221,-9.617,0.127,1.452,-0.005406,0.001908,-0.003219,0.48336945983055934,0.22164156835008847,0.8064233595032803,0.2586703418056844
323,8.077184438705444,0.6218,-0.0117,0.441,-9.626,0.156,1.514,-0.012886,0.004756,-0.000165,0.4805908692153953,0.20022101782376825,0.8042089584901971,0.2866913175045894
324,8.103948593139648,0.6232,-0.0106,0.4337,-9.629,0.158,1.49,-0.008638,0.004729,-0.002919,0.4766753165232017,0.18141094474944622,0.8013878264949417,0.3124872210000471
325,8.12720775604248,0.62,-0.0095,0.4299,-9.591,0.143,1.473,-0.006645,0.000415,-0.006188,0.4697735669141628,0.14909571693105103,0.7964110208880605,0.3504464992400378
326,8.14958381652832,0.6198,-0.0064,0.4213,-9.628,0.146,1.466,-0.001866,0.000505,-0.006693,0.45975269940800323,0.10564573049728912,0.7877927908667979,0.3960416059873634
327,8.176153182983398,0.6244,-0.0106,0.4396,-9.606,0.117,1.489,-0.006385,0.003929,-0.002652,0.44812855228243526,0.07321652836960474,0.7787169495071541,0.4329203773825204
328,8.202499389648438,0.6253,-0.0092,0.4326,-9.621,0.175,1.481,-0.012003,0.005544,-0.001794,0.4378321895530222,0.049483956350965114,0.7690044476223982,0.46312684158017964
329,8.226446628570557,0.6208,-0.0089,0.4299,-9.616,0.169,1.488,-0.007866,0.004062,-0.004042,0.4254973835577559,0.02656530240990082,0.7581356134771151,0.4934335344005845
330,8.24938178062439,0.6201,-0.0067,0.4229,-9.592,0.113,1.482,-0.007175,0.003934,-0.005218,0.40625507914882264,-0.009597322377435297,0.7403993793286864,0.5354189585349622
331,8.274825096130371,0.6263,-0.0095,0.4413,-9.586,0.104,1.496,-0.009828,0.005116,-0.005079,0.38507384770526676,-0.04231877506116774,0.7210235759793343,0.5745017458396068
332,8.30455493927002,0.6258,-0.0079,0.4329,-9.631,0.102,1.503,-0.006499,0.003237,-0.003077,0.3653337236753048,-0.06876324661269051,0.7024406672411047,0.6069431565366644
333,8.326632738113403,0.6232,-0.007,0.4313,-9.639,0.132,1.459,-0.010769,0.001056,-0.000497,0.35569484669011264,-0.07953784487785984,0.6929156693448374,0.6221115514493188
334,8.34937071800232,0.6209,-0.0056,0.4208,-9.612,0.111,1.453,-0.007922,-0.000197,0.000269,0.3476072225624729,-0.08728898449373965,0.6851856977834442,0.634090223518286
335,8.375589370727539,0.6289,-0.0084,0.4397,-9.569,0.126,1.514,-0.009806,0.001415,0.000551,0.3381331986761765,-0.09672137336200567,0.675492755278319,0.6480898498314027
336,8.399777889251709,0.6287,-0.0087,0.4327,-9.582,0.107,1.464,-0.011697,0.004348,0.001623,0.3332559089262428,-0.09973799417736473,0.6698062563139617,0.6560125080254912
337,8.425260066986084,0.6266,-0.0089,0.4308,-9.641,0.141,1.483,-0.008641,0.003425,-0.000615,0.3252558175560437,-0.10663499829324455,0.6609532768546862,0.6678161394425879
338,8.457717180252075,0.6259,-0.0056,0.4203,-9.612,0.137,1.469,-0.008536,0.003856,0.000635,0.31675135004613114,-0.11196229018868609,0.6533230500798881,0.6784556139158772
339,8.481431722640991,0.6318,-0.0098,0.4394,-9.622,0.102,1.495,-0.007859,0.002735,0.000592,0.307668147428037,-0.11720347078549209,0.6445382056139122,0.6900537363119139
340,8.505159378051758,0.6315,-0.0092,0.4308,-9.6,0.111,1.486,-0.010805,0.002642,-0.000471,0.3017180416241224,-0.12016880981482825,0.6373350526375573,0.6988059181100817
341,8.52847933769226,0.6289,-0.0073,0.4295,-9.595,0.103,1.439,-0.006344,0.002821,0.001469,0.30148879821785857,-0.11591823056269988,0.6378347263364189,0.6991668829769538
342,8.549226760864258,0.6274,-0.0056,0.4195,-9.654,0.145,1.449,-0.006541,0.001609,0.003644,0.3014860280259056,-0.11219518497446922,0.6379333446472183,0.6996852600712128
343,8.574484586715698,0.6341,-0.0081,0.4389,-9.644,0.133,1.465,-0.004639,0.001712,0.001251,0.30170355685444683,-0.10786647854186285,0.6394096019943706,0.6989242787782909
344,8.599737882614136,0.6323,-0.0084,0.4306,-9.607,0.129,1.486,-0.007065,0.002427,0.00113,0.294786743193729,-0.11263135066397469,0.6328409517887856,0.7070553617814569
345,8.62477731704712,0.6305,-0.0081,0.4303,-9.572,0.161,1.438,-0.006795,0.003165,0.00201,0.2941604803599831,-0.10938795845255007,0.6331521873201574,0.7075466020211442
346,8.654579162597656,0.6287,-0.0059,0.4195,-9.63,0.132,1.444,-0.002242,0.000847,-0.002415,0.2882382309975154,-0.11254386506134259,0.6287522033880231,0.7133885809032713
347,8.678280353546143,0.6349,-0.0092,0.4387,-9.634,0.115,1.455,-0.00639,0.001769,-0.001243,0.27583715141017096,-0.12266300245855409,0.6172675630704909,0.7265317675854186
348,8.698757410049438,0.6326,-0.0103,0.4305,-9.645,0.15,1.467,-0.007909,0.000341,-0.001181,0.26619931080074694,-0.1303090134906006,0.6070225712777776,0.7373473305652019
349,8.725310564041138,0.6305,-0.0073,0.4308,-9.603,0.132,1.418,-0.008495,0.001566,-0.001788,0.250783376250022,-0.14374981874258175,0.5903778782462568,0.753589841150717
350,8.758683681488037,0.6285,-0.0056,0.4176,-9.607,0.118,1.446,-0.00511,0.000167,-0.000783,0.24153887454602735,-0.15053613290249293,0.5808069887289355,0.7626670876715658
351,8.77657413482666,0.6338,-0.0098,0.4384,-9.616,0.103,1.508,-0.008875,-0.00058,-0.000421,0.2291960028287089,-0.15975545822469475,0.5675145686797974,0.7745157197829774
352,8.799113988876343,0.6328,-0.0089,0.4289,-9.618,0.125,1.491,-0.010484,0.000358,-0.000228,0.21270491486887583,-0.17298387528132167,0.5491638217302258,0.7894632955280019
353,8.826186656951904,0.6302,-0.0067,0.4314,-9.615,0.14,1.448,-0.008197,4.8e-05,-0.00386,0.19413798648996905,-0.18556467161911008,0.5290035257179436,0.8050040152859472
354,8.858568906784058,0.6293,-0.0056,0.4171,-9.599,0.172,1.433,-0.010905,-0.001697,0.000498,0.1845567232103083,-0.1920582863289399,0.5169205519166862,0.813538919521625
355,8.876590490341187,0.6344,-0.0103,0.4386,-9.6,0.094,1.487,-0.007603,-0.002496,-0.000623,0.17270053063137691,-0.20016437998831652,0.5044427126262385,0.8219770662140249
356,8.900309801101685,0.6331,-0.0094,0.4314,-9.621,0.135,1.458,-0.012387,-0.002185,0.002156,0.17210977716730025,-0.20077518860681692,0.5004269890423937,0.8244030427414027
357,8.926043033599854,0.6313,-0.0078,0.4327,-9.631,0.116,1.487,-0.011268,-0.001556,0.004603,0.18395128217056378,-0.19303891143653445,0.5094588539672249,0.8181378738168802
358,8.957055807113647,0.6279,-0.0069,0.4173,-9.608,0.131,1.473,-0.011595,-0.001825,0.004368,0.19716780817600676,-0.1853475395815008,0.5177329294107411,0.8116179882148533
359,8.975744724273682,0.6344,-0.009,0.4392,-9.606,0.106,1.466,-0.008521,-0.004434,0.004691,0.213109635368633,-0.17580150167610184,0.5290824051148543,0.8023402793823562
360,9.005702018737793,0.6318,-0.0078,0.4319,-9.59,0.09,1.475,-0.004804,-0.003688,0.002519,0.21910246998022181,-0.17377876926014063,0.5327195072296179,0.7987521352835496
361,9.029320478439331,0.6297,-0.0073,0.4314,-9.598,0.102,1.476,-0.010057,-0.002752,0.002898,0.22101472528917715,-0.1737600672192527,0.5322072508067911,0.7985708311940699
362,9.053497076034546,0.628,-0.0056,0.4181,-9.661,0.158,1.49,-0.008068,-0.004509,0.003251,0.23127821764355022,-0.16930556407447217,0.5370490416765807,0.7933626780050304
363,9.076991319656372,0.6357,-0.0097,0.4368,-9.632,0.137,1.474,-0.007285,-0.005833,0.002728,0.2386300302562778,-0.1660006311239662,0.54207207290446,0.7884525140446916
364,9.099565505981445,0.6328,-0.0108,0.4281,-9.598,0.119,1.493,-0.006069,-0.003904,0.001232,0.24570580748771548,-0.16342542672373078,0.5465561119130997,0.7837073449939149
365,9.126715660095215,0.6302,-0.007,0.4311,-9.59,0.118,1.446,-0.002369,-0.00144,-0.001888,0.23910430295066926,-0.16836275875760756,0.5396030159451263,0.7895009176415985
366,9.159867763519287,0.6277,-0.0064,0.4162,-9.667,0.175,1.493,0.002935,-0.001524,-0.000907,0.23512487242304697,-0.17258778145056713,0.536325281198894,0.7920132226225423
367,9.177711248397827,0.6341,-0.0076,0.4381,-9.633,0.098,1.479,0.002691,-0.001572,-0.002901,0.2191912066846604,-0.18391173735862348,0.5237577650003278,0.802377399591811
368,9.202598094940186,0.6321,-0.0086,0.4265,-9.567,0.148,1.468,-0.000348,-0.001909,-0.003094,0.20145679749719209,-0.19604110811803468,0.5078426743409526,0.8142965435197778
369,9.225322008132935,0.6305,-0.007,0.4292,-9.621,0.12,1.488,0.005328,-0.003097,-0.002571,0.18067508760551104,-0.20973912232319616,0.49076495987528396,0.8261451249292991
370,9.255029201507568,0.6269,-0.0061,0.417,-9.589,0.104,1.529,0.00564,-0.00123,-0.006734,0.14643221880738735,-0.2308330075821943,0.46024115107815267,0.8446607666749777
371,9.275956392288208,0.6315,-0.0084,0.4381,-9.642,0.098,1.555,-0.003664,-9.2e-05,-0.000814,0.1215653728767957,-0.24412715435639243,0.4372143735234796,0.8570107258416588
372,9.299198865890503,0.6321,-0.0067,0.4276,-9.628,0.11,1.539,-0.011855,0.000352,-0.003146,0.10112294709563716,-0.2529024767298846,0.4145710575126203,0.8683002505513004
373,9.3251793384552,0.63,-0.0067,0.4322,-9.6,0.155,1.491,-0.014531,0.000832,-0.000965,0.08441994881212164,-0.2569671714204319,0.39489796892074447,0.8780072546380308
374,9.353853225708008,0.6259,-0.0045,0.4173,-9.6,0.11,1.439,-0.005605,-0.000361,-0.000444,0.07437688463677505,-0.2604367853513115,0.3820185012356654,0.8835737799308322
375,9.374486684799194,0.6328,-0.0089,0.4378,-9.605,0.094,1.505,-0.011666,0.001907,-0.000757,0.06424295801431375,-0.26214591846821683,0.3698438954697411,0.8890263509929238
376,9.405520677566528,0.6318,-0.0091,0.4268,-9.61,0.097,1.461,-0.016193,0.000418,0.002725,0.06873037951386571,-0.2586705944398427,0.37073240281184594,0.88933859919008
377,9.430099487304688,0.6305,-0.0078,0.4311,-9.614,0.148,1.519,-0.019077,0.000632,0.001492,0.06812355339078117,-0.25653321282508856,0.36452491899047373,0.8925645498371755
378,9.45966100692749,0.6264,-0.0039,0.4163,-9.598,0.116,1.49,-0.014878,-0.000541,0.000501,0.06581202665872532,-0.2571359270036375,0.356477183328525,0.8958090811982274
379,9.475455045700073,0.6328,-0.0087,0.4368,-9.606,0.145,1.471,-0.017222,0.001712,0.000622,0.06269918487987974,-0.25588571508832425,0.3469914201826676,0.9001045868946291
380,9.502227783203125,0.63,-0.0084,0.4297,-9.623,0.123,1.496,-0.022565,0.002261,-0.0009,0.05275662972757595,-0.255873457194079,0.3307416743304737,0.9068381646051363
381,9.525326251983643,0.63,-0.0075,0.4303,-9.613,0.139,1.475,-0.02583,0.002968,-0.002461,0.03528298089915845,-0.2567223892952509,0.305326020309674,0.9163103990544162
382,9.550179481506348,0.6254,-0.0034,0.4165,-9.658,0.11,1.477,-0.030949,0.001862,-0.001917,0.017832741542109072,-0.25858860616247237,0.27584412373545636,0.9255938339750651
383,9.576003551483154,0.6312,-0.009,0.4392,-9.649,0.096,1.438,-0.029723,0.002289,-1.5e-05,0.0040500787475152705,-0.2573638660589858,0.2504677358866584,0.9332809601556878
384,9.604026079177856,0.6289,-0.0108,0.4273,-9.62,0.124,1.458,-0.02893,0.001214,-0.004047,-0.019328242666833806,-0.2582844787004553,0.21553225276061608,0.9415207884681994
385,9.624624013900757,0.6271,-0.007,0.4297,-9.624,0.133,1.457,-0.024449,-3.8e-05,-0.003573,-0.04125177542792794,-0.2579540020668996,0.18427823718600111,0.9475228520417508
386,9.65277099609375,0.622,-0.0045,0.4173,-9.638,0.087,1.466,-0.022773,0.00335,-0.005626,-0.07569968239031873,-0.25757817455470033,0.1424474990622482,0.952697093566462
387,9.674983978271484,0.6284,-0.0101,0.441,-9.632,0.047,1.429,-0.044766,0.008636,0.00242,-0.10187584603900193,-0.25044835904825846,0.10259458996355632,0.9572728354832188
388,9.702641725540161,0.6268,-0.0105,0.4297,-9.562,0.143,1.474,-0.028711,0.003888,0.002886,-0.10369935814480381,-0.24349009518671483,0.08334012783171671,0.9607358844965215
389,9.725239753723145,0.624,-0.0092,0.4332,-9.569,0.145,1.46,-0.022509,0.002553,-0.003208,-0.11643465710553032,-0.2387541913588419,0.057647967281198344,0.9623492705882044
390,9.749110460281372,0.6214,-0.0064,0.4189,-9.619,0.107,1.45,-0.020635,0.002108,-0.001455,-0.13392404798100613,-0.2336119770728812,0.03030875299872969,0.9625856704897194
391,9.775599002838135,0.6268,-0.0101,0.4391,-9.649,0.123,1.463,-0.024051,0.000412,0.001667,-0.14575443908087904,-0.22764075015950938,0.007161384911325293,0.962748174197794
392,9.801063060760498,0.6245,-0.0108,0.4283,-9.629,0.128,1.445,-0.016379,0.000615,0.000203,-0.1497964648680125,-0.2238001683475011,-0.005253069285479212,0.9630404503569715
393,9.826335906982422,0.6229,-0.0082,0.4356,-9.61,0.105,1.44,-0.017498,0.000313,0.001036,-0.1574100375129117,-0.22055493107840354,-0.02004829036403129,0.9623802099589661
394,9.8492271900177,0.6185,-0.0075,0.4178,-9.619,0.188,1.488,-0.027001,0.001898,-0.001191,-0.17069005236450638,-0.21410773154608748,-0.04359744894136174,0.9607924061740892
395,9.876038312911987,0.6252,-0.0111,0.4383,-9.659,0.125,1.454,-0.016023,0.002943,-0.00699,-0.2098153019001108,-0.2018843997588249,-0.09094433772847584,0.9523388869817894
396,9.90069317817688,0.6224,-0.01,0.428,-9.649,0.084,1.487,-0.012642,0.003537,-0.008995,-0.2584412169343729,-0.18312810476507319,-0.14475789351390328,0.9373992676016181
397,9.929282188415527,0.6213,-0.0084,0.4334,-9.596,0.081,1.504,-0.018817,0.00312,-0.004767,-0.3011168976121476,-0.15984476791280128,-0.19393987924733222,0.919872593015396
398,9.949024438858032,0.6162,-0.0067,0.4164,-9.58,0.102,1.497,-0.017034,0.002844,-0.007348,-0.3401766753569176,-0.1343466123110996,-0.23930133573335954,0.8994251986796207
399,9.975871086120605,0.6221,-0.0117,0.4402,-9.583,0.119,1.448,-0.010271,0.00261,-0.010793,-0.38258488992932027,-0.10229201186208696,-0.28571113054676245,0.8726593242432394
400,9.999775886535645,0.62,-0.01,0.431,-9.628,0.08,1.452,-0.007933,0.003136,-0.011857,-0.4313008890824133,-0.059764703248382664,-0.3361635919942788,0.8351058392442581
401,10.025872230529785,0.6203,-0.0095,0.4348,-9.632,0.118,1.467,-0.015433,0.002273,-0.010966,-0.47941318925437765,-0.006205418131892154,-0.3896223259554858,0.7863325822270064
402,10.050180912017822,0.6149,-0.0075,0.4186,-9.592,0.073,1.447,-0.011943,0.003007,-0.014129,-0.5241754744266609,0.05730476319846267,-0.43901371346257057,0.7274772817869689
403,10.076595544815063,0.6216,-0.0103,0.4394,-9.568,0.073,1.492,-0.008942,0.002076,-0.015728,-0.5667849621487684,0.13543521215922744,-0.4836090311560336,0.6530960227820461
404,10.10605525970459,0.6195,-0.0087,0.431,-9.619,0.01,1.466,-0.013289,0.003014,-0.012054,-0.594787317218032,0.21157512279984872,-0.5140158198072656,0.580733804489346
405,10.124524116516113,0.6182,-0.009,0.4356,-9.644,0.018,1.431,-0.01016,0.003609,-0.008252,-0.6067478974197956,0.2681397178869974,-0.5290900577927977,0.5291708527620853
406,10.150055885314941,0.6131,-0.0056,0.4188,-9.62,0.014,1.5,-0.011337,0.001721,-0.003918,-0.6115441835278738,0.30940090120846264,-0.5376061354804464,0.4911867638876247
407,10.178023099899292,0.6211,-0.0074,0.4413,-9.583,0.056,1.427,-0.003712,0.000308,-0.003844,-0.6130293831654977,0.33553697018845907,-0.5417395115635115,0.46704198807324226
408,10.200554847717285,0.6174,-0.0087,0.4296,-9.596,0.059,1.454,-0.006226,-4.1e-05,-0.004006,-0.6146878722505472,0.3660085794364149,-0.544953050767861,0.43729019191588725
409,10.225388765335083,0.6179,-0.0074,0.4364,-9.627,0.02,1.451,-0.006875,0.000521,-0.002219,-0.6147222524493884,0.38346232181658585,-0.5456914752962305,0.4210629571448991
410,10.250338554382324,0.6115,-0.0035,0.4183,-9.626,0.057,1.44,-0.005723,0.001422,-0.002128,-0.6135159155920618,0.3991858012928008,-0.5454484172506638,0.4083319011297114
411,10.274501323699951,0.6195,-0.0079,0.4429,-9.618,0.043,1.451,-0.005596,0.002452,-0.000807,-0.6118227348522276,0.4082239275558019,-0.5451330160352056,0.40231351073163885
412,10.301457166671753,0.6172,-0.0076,0.4307,-9.606,0.026,1.46,-0.00581,0.002074,0.002034,-0.6102662679510763,0.40945636176443667,-0.5454651866230414,0.4029743170401639
413,10.325989961624146,0.6153,-0.0063,0.4383,-9.578,0.021,1.464,-0.003755,-0.0007,0.005586,-0.6089428549120375,0.39275976872327006,-0.545225316433659,0.42149462374250646
414,10.375602722167969,0.6112,-0.0059,0.4215,-9.62,0.047,1.429,-0.002991,-0.005122,0.01017,-0.6066599654283619,0.3515419477154205,-0.543890161184912,0.46104819477919873
415,10.377864837646484,0.6187,-0.0101,0.4415,-9.647,0.093,1.448,-0.00199,-0.007165,0.010231,-0.6012600004217314,0.30204332188472327,-0.5396547529400948,0.5059930742874511
416,10.415727615356445,0.6161,-0.0084,0.4315,-9.623,0.116,1.478,-0.003721,-0.006382,0.009728,-0.5923534882607715,0.2520747865654771,-0.5306994658260173,0.5513018446325435
417,10.42868971824646,0.6161,-0.0066,0.4383,-9.61,0.112,1.473,-0.008929,-0.005643,0.009532,-0.5808411353467647,0.2130048103594922,-0.5226964989362524,0.5865499946744374
418,10.449161767959595,0.6105,-0.0062,0.4188,-9.619,0.059,1.462,-0.004894,-0.006403,0.007564,-0.5670142142740322,0.17189781096333542,-0.5112363903385889,0.6225619459867309
419,10.475525856018066,0.6182,-0.012,0.442,-9.61,0.09,1.46,-0.003934,-0.006439,0.005605,-0.555903064593249,0.1437044288981011,-0.5019929057974973,0.6467796706915653
420,10.505147695541382,0.6151,-0.009,0.4326,-9.614,0.091,1.439,-0.005473,-0.006512,0.010523,-0.5392748289393972,0.10679446393199152,-0.4864697483689229,0.6790616947433711
421,10.5246422290802,0.614,-0.0096,0.4379,-9.615,0.092,1.48,-0.002201,-0.006437,0.008395,-0.5208766743271134,0.07074621119491784,-0.46881678540399035,0.7098544114584053
422,10.550732135772705,0.6097,-0.0048,0.4188,-9.592,0.064,1.498,-0.008497,-0.007413,0.006506,-0.5053601474048594,0.042707956885245035,-0.4556676940024956,0.7315422779826704
423,10.578469514846802,0.6161,-0.0088,0.4426,-9.604,0.068,1.428,-0.008781,-0.008168,0.009986,-0.4865923293925142,0.014133077461008642,-0.440352905693593,0.7543987536741148
424,10.599957466125488,0.6151,-0.0098,0.4309,-9.644,0.079,1.482,-0.002559,-0.007976,0.011355,-0.458400143306822,-0.02380203060778341,-0.4132801395277006,0.7864491707842255
425,10.62694001197815,0.6148,-0.0096,0.4393,-9.643,0.084,1.476,-0.004955,-0.007585,0.009561,-0.43078009207788837,-0.05812264637386455,-0.3860826145983305,0.8136279769973388
426,10.649714231491089,0.6112,-0.0067,0.4199,-9.614,0.092,1.439,0.000797,-0.006283,0.008415,-0.40030608565497716,-0.09007014564973091,-0.35596194324928226,0.8396031810375787
427,10.67635440826416,0.6166,-0.009,0.4434,-9.596,0.081,1.449,-0.001739,-0.009869,0.005116,-0.3819913281262165,-0.11159213198485164,-0.33699561554682395,0.8532665330467741
428,10.703157186508179,0.6148,-0.0106,0.4301,-9.587,0.089,1.472,0.005881,-0.00946,0.00392,-0.367595402271186,-0.1288510869235201,-0.32120170119148134,0.8631920323887442
429,10.724688291549683,0.6158,-0.0101,0.4371,-9.639,0.043,1.513,5e-06,-0.009335,0.005485,-0.3549852210850883,-0.14451665750786588,-0.3061412369336853,0.8714229579042765
430,10.75478482246399,0.6097,-0.0078,0.4185,-9.667,0.087,1.484,-0.002058,-0.00767,0.008958,-0.32842651227093617,-0.16808028799250738,-0.27943416937058874,0.8864545040858405
431,10.77848744392395,0.6189,-0.012,0.4401,-9.602,0.065,1.434,-0.003106,-0.007972,0.011231,-0.2854808013111467,-0.19592675483305594,-0.23730054597656508,0.9076353175711913
432,10.800826072692871,0.6151,-0.0092,0.4296,-9.565,0.111,1.485,0.004443,-0.010093,0.009401,-0.24268556225446636,-0.22055868466132944,-0.19288809566527057,0.9247982304504713
433,10.82456350326538,0.6169,-0.0106,0.4377,-9.626,0.08,1.477,0.001645,-0.010707,0.010596,-0.19770278729440693,-0.24379970939312573,-0.1465152740780574,0.9380877272716458
434,10.852956295013428,0.6102,-0.0075,0.4188,-9.643,0.106,1.479,0.000383,-0.008674,0.010733,-0.14642364450857026,-0.26380063672986753,-0.09420390620441048,0.948733347387755
435,10.875069618225098,0.6174,-0.012,0.4374,-9.608,0.153,1.488,-0.000484,-0.009412,0.008113,-0.1049871730876602,-0.27739760332809354,-0.05207405848537208,0.9535809119250205
436,10.901156425476074,0.6166,-0.0111,0.4288,-9.612,0.149,1.463,0.002703,-0.011161,0.002842,-0.07882771683998692,-0.28746270171535093,-0.024975126311107137,0.954215714210393
437,10.929932832717896,0.6158,-0.0104,0.4369,-9.587,0.158,1.477,0.00228,-0.012838,-0.000923,-0.07326100046334545,-0.2952193754052759,-0.017861615660382343,0.952449110914819
438,10.953088521957397,0.611,-0.0067,0.4193,-9.643,0.132,1.52,0.006385,-0.011038,-0.002237,-0.08951748315988754,-0.30173424736802235,-0.031401516231490914,0.9486606395083207
439,10.976303815841675,0.6182,-0.0112,0.4382,-9.628,0.144,1.523,0.00584,-0.010436,-0.00846,-0.13018179051080522,-0.3036772427252301,-0.06806955129388549,0.9413816281704521
440,11.014662265777588,0.6153,-0.0092,0.4299,-9.595,0.121,1.526,0.002488,-0.010453,-0.012139,-0.1942989099005732,-0.2966550462336623,-0.13015011680582436,0.9259074814747869
441,11.025166749954224,0.6164,-0.0103,0.4363,-9.573,0.126,1.5,-0.000399,-0.007863,-0.011782,-0.2585055111902025,-0.28113198848482734,-0.1928189899982998,0.9038586962744202
442,11.052918434143066,0.6107,-0.0048,0.4169,-9.606,0.098,1.529,0.001167,-0.008597,-0.012721,-0.326513557580704,-0.25670567300938724,-0.26008864320172925,0.8716908808965903
443,11.076335906982422,0.62,-0.0117,0.4399,-9.582,0.057,1.524,-0.001391,-0.007564,-0.006217,-0.3746769143723274,-0.234966244598083,-0.3068764640270423,0.8427543589695426
444,11.103505611419678,0.6169,-0.0092,0.4264,-9.613,0.062,1.527,0.000302,-0.007537,-0.005207,-0.4083875256001171,-0.2170526362940595,-0.3397189342955927,0.8189620428890944
445,11.12645435333252,0.6185,-0.0101,0.4364,-9.593,0.069,1.561,-0.001306,-0.004636,-0.003018,-0.4255997568513944,-0.20772430993934,-0.3558709865244156,0.8056496130318676
446,11.15142560005188,0.6112,-0.0053,0.4167,-9.588,0.085,1.483,-0.000415,-0.004621,-0.000167,-0.4342453281745084,-0.20470683345202667,-0.3641456610271586,0.7980752125280872
447,11.175111770629883,0.6197,-0.0093,0.4388,-9.612,0.059,1.512,0.003008,-0.005576,0.001652,-0.4264099922122674,-0.2149723750886678,-0.3550706835096686,0.8036704587094439
448,11.201035976409912,0.6169,-0.0092,0.4272,-9.58,0.062,1.558,-0.000953,-0.004983,0.006197,-0.4083301846925622,-0.23202035733757093,-0.33665562501766566,0.8161470481438066
449,11.224953413009644,0.6187,-0.0092,0.4348,-9.608,0.051,1.509,-0.00958,-0.0038,0.010642,-0.37836041067241977,-0.25470236995205037,-0.3089737294743801,0.834568952736261
450,11.250673055648804,0.6126,-0.0056,0.415,-9.639,0.067,1.526,-0.005048,-0.002955,0.013301,-0.32904318341184624,-0.2850974326361719,-0.2618442930485706,0.8613289752193153
451,11.277827978134155,0.6208,-0.0103,0.4366,-9.609,0.093,1.523,-0.011437,-0.000478,0.015674,-0.2567565356477671,-0.3181324335861086,-0.19243874500871416,0.8920959396400189
452,11.300190687179565,0.6175,-0.0078,0.4272,-9.604,0.095,1.529,-0.006895,-0.000655,0.01582,-0.17795077008892587,-0.34272861136007604,-0.11642350178410975,0.9150498295788473
453,11.325085401535034,0.619,-0.0098,0.4353,-9.611,0.102,1.534,-0.00821,-0.002307,0.010526,-0.11673108380686516,-0.35515460896260254,-0.05712245344416524,0.9257300271236829
454,11.351136684417725,0.6123,-0.0062,0.4183,-9.634,0.169,1.511,-0.004547,-0.003681,0.005489,-0.06994816459899118,-0.36151237771622746,-0.012028467600772492,0.9296619659824581
455,11.37421727180481,0.62,-0.0101,0.4377,-9.635,0.14,1.548,-0.00208,-0.003285,0.006112,-0.043303900700081374,-0.3649713197573095,0.01428758308789205,0.92990137805483
456,11.400274753570557,0.6167,-0.01,0.425,-9.585,0.11,1.531,-0.003361,-0.004878,0.002647,-0.029045072178693437,-0.36790224262496024,0.027871542688488283,0.928992734504325
457,11.42521595954895,0.6195,-0.009,0.4358,-9.609,0.099,1.537,-0.004249,-0.002426,0.002014,-0.021428670611470475,-0.37062100696408445,0.034537789982588045,0.9278944025781554
458,11.452908992767334,0.6131,-0.0062,0.4167,-9.616,0.1,1.548,-0.006421,-0.001614,0.004596,-0.00017464148128427254,-0.37141197799140724,0.054208602842231356,0.9268843182850579
459,11.474166870117188,0.6205,-0.0109,0.4374,-9.637,0.119,1.533,-0.004207,-0.002564,0.000857,0.004297687758635205,-0.37259676361019944,0.05821417768928718,0.9261556516823156
460,11.498905181884766,0.6156,-0.0089,0.4269,-9.615,0.146,1.532,-0.003977,-0.001184,0.002948,0.006301286600423589,-0.37432870607262886,0.05886352701686533,0.9254044514612547
461,11.524999856948853,0.6187,-0.009,0.4361,-9.592,0.118,1.56,-0.006615,-0.001628,-0.001892,-0.005361993089162638,-0.3766267151492496,0.04585594119129684,0.9252139207358794
462,11.554554224014282,0.612,-0.0059,0.4164,-9.596,0.103,1.568,-0.007663,-0.000931,-0.002461,-0.021785626488732196,-0.37775977754119505,0.027121642436078012,0.9252498870370587
463,11.574273824691772,0.6184,-0.0109,0.4388,-9.613,0.103,1.526,-0.006554,-0.001075,-0.002901,-0.04157268421072448,-0.3783839384085141,0.005852992155935311,0.9246961931168527
464,11.600253582000732,0.6154,-0.0092,0.4272,-9.634,0.147,1.525,-0.003374,-0.001489,-0.004742,-0.06199404720408111,-0.3787854375371609,-0.016098588829002183,0.9232654904515573
465,11.639281988143921,0.6169,-0.0098,0.4382,-9.598,0.124,1.583,-0.005999,-0.001887,-0.007742,-0.09686330924625616,-0.3766986128699868,-0.050805851046281325,0.9198556516558211
466,11.649193525314331,0.6086,-0.0048,0.4174,-9.602,0.116,1.51,-0.00456,-0.000125,-0.009405,-0.13982533343157597,-0.37073710314714053,-0.09436553948327714,0.9132896700602965
467,11.674393892288208,0.6182,-0.0098,0.4388,-9.594,0.092,1.511,-0.002274,-0.000678,-0.006105,-0.18724177988391175,-0.3603457818878254,-0.1412394561890138,0.9028526177383484
468,11.703706979751587,0.6146,-0.0097,0.4261,-9.631,0.079,1.516,-0.008275,0.00037,-0.009743,-0.23582380546865767,-0.34457909113631396,-0.19052698650761685,0.8884547541311707
469,11.724503993988037,0.6158,-0.0093,0.4369,-9.613,0.1,1.522,-0.007614,-3.3e-05,-0.006314,-0.27673453360051603,-0.3283262034620347,-0.23361357386419013,0.8723787022500674
470,11.750003099441528,0.6099,-0.004,0.4172,-9.606,0.102,1.519,-0.004453,-0.002214,-0.007238,-0.3140281409143543,-0.31028739810593176,-0.2719451362177842,0.8550753768984443
471,11.775262117385864,0.6158,-0.0109,0.4385,-9.576,0.1,1.53,-0.005677,-0.001319,-0.007777,-0.35205270926402926,-0.29040527942690364,-0.3103419348558883,0.833913393015571
472,11.799232482910156,0.6133,-0.0089,0.4272,-9.603,0.061,1.469,-0.010289,-0.00115,-0.006249,-0.38742887591267383,-0.2685401649881133,-0.34690247022709964,0.8108290337966046
473,11.825458526611328,0.6151,-0.0082,0.439,-9.633,0.119,1.492,-0.006054,-0.000764,-0.005277,-0.4118748648714753,-0.2506566295300585,-0.37356397883576137,0.79245208276345
474,11.854797124862671,0.6086,-0.0056,0.418,-9.616,0.091,1.542,-0.007001,-0.002173,-0.00509,-0.434175066207769,-0.23393659627347316,-0.39622655149730795,0.7744483202228618
475,11.876195192337036,0.6166,-0.0093,0.4396,-9.585,0.116,1.527,-0.008672,-0.002212,-0.004984,-0.4557623376571536,-0.21554549684357452,-0.41952312274554177,0.7548650076971196
476,11.898795127868652,0.6112,-0.0098,0.4266,-9.585,0.109,1.538,-0.009508,-0.000312,-0.005283,-0.4800397015627265,-0.19155115877400444,-0.44653807708843674,0.7303928971492437
477,11.924762964248657,0.6148,-0.009,0.4404,-9.609,0.084,1.526,-0.008044,-0.000125,-0.008169,-0.5107656586892426,-0.15747484473827741,-0.47888070776249264,0.6964146630501784
478,11.951926469802856,0.6079,-0.0051,0.4174,-9.635,0.082,1.494,-0.004767,-0.003217,-0.009047,-0.5455770370255275,-0.11391656737280645,-0.5145757861126653,0.6515983983213706
479,11.975395202636719,0.6164,-0.0093,0.4385,-9.609,0.087,1.519,-0.005599,-0.003795,-0.008689,-0.576520512626251,-0.06688258406434464,-0.5469355828924296,0.6033343075245753
480,12.000829219818115,0.612,-0.007,0.4264,-9.591,0.041,1.496,-0.008239,-0.003103,-0.009563,-0.6034854670319456,-0.016355044968217658,-0.5755781541759615,0.5515864320491533
481,12.025071144104004,0.6143,-0.0071,0.4388,-9.583,0.061,1.531,-0.004104,-0.002683,-0.007796,-0.6236388480392581,0.028722937073640376,-0.5963670681543739,0.5045749697746484
482,12.052896738052368,0.6068,-0.0037,0.4164,-9.602,0.049,1.533,0.001543,-0.005891,-0.005319,-0.6402417439561994,0.06972896654433342,-0.6115827313558582,0.4595595099961395
483,12.076132774353027,0.614,-0.0074,0.4409,-9.639,0.051,1.564,0.001677,-0.006509,-0.004966,-0.6526251934552678,0.10503903887327326,-0.6221158859659351,0.41954616147555546
484,12.101544618606567,0.6112,-0.0073,0.4247,-9.603,0.119,1.533,0.000704,-0.005421,-0.007812,-0.6617963860242618,0.1391315329057069,-0.6302143805677862,0.38144173149000915
485,12.126796960830688,0.6145,-0.006,0.4391,-9.597,0.102,1.552,-0.005364,-0.003921,-0.010266,-0.6702780882248173,0.19369098266789334,-0.639451685473496,0.3229746578664263
486,12.152111530303955,0.6071,-0.004,0.4183,-9.594,0.058,1.537,-0.000117,-0.004517,-0.015927,-0.6741439786489791,0.2807409505278618,-0.6418912441774685,0.23385902889633892
487,12.175512552261353,0.6148,-0.0077,0.4385,-9.629,0.067,1.514,-0.000264,-0.00504,-0.017354,-0.6636023077216242,0.3788965196082076,-0.6312999556656703,0.13240003999940722
488,12.200373888015747,0.6107,-0.0062,0.425,-9.622,-0.03,1.488,0.000629,-0.007189,-0.020555,-0.6345392881496073,0.4855196849555422,-0.6009645200252164,0.021729541783521933
489,12.225231409072876,0.6145,-0.0058,0.438,-9.548,-0.015,1.556,-0.00648,-0.005578,-0.016602,-0.5919913907672937,0.5770351021729426,-0.5578787295527803,-0.07313007062927496
490,12.255624055862427,0.6073,-0.0037,0.4172,-9.606,0.063,1.497,0.001769,-0.008145,-0.015587,-0.5398484701875413,0.6546576011523424,-0.5053907265073927,-0.15673949103516216
491,12.27486538887024,0.6148,-0.0066,0.4374,-9.643,0.056,1.516,0.005481,-0.01204,-0.015491,-0.4836257110175828,0.7170826380110755,-0.4464389033097671,-0.22932720623028324
492,12.303619146347046,0.6107,-0.003,0.4253,-9.636,0.09,1.544,0.003114,-0.013723,-0.020173,-0.40700025627513436,0.7795450424643211,-0.36752088999421373,-0.3026362727419435
493,12.325445890426636,0.6135,-0.0063,0.4393,-9.6,0.087,1.518,0.001081,-0.014574,-0.02617,-0.29046705636907966,0.8433473605201375,-0.24907027056248313,-0.37730374897412644
494,12.35383129119873,0.6068,-0.0013,0.4161,-9.608,0.07,1.548,0.001771,-0.016556,-0.027995,-0.1379324901113555,0.8853830781631262,-0.09551801443391289,-0.43352940153197367
495,12.374377727508545,0.6156,-0.0036,0.4372,-9.559,0.027,1.628,0.001244,-0.019196,-0.035632,0.05245732213802219,0.886716757970809,0.09618132552711957,-0.44914449023414693
496,12.400874137878418,0.6105,-0.0027,0.4223,-9.609,-0.027,1.589,-7e-06,-0.016683,-0.03815,0.2617941971932658,0.8228969310409523,0.3058777498853154,-0.40092797523297397
497,12.424206256866455,0.6146,-0.0012,0.4386,-9.61,-0.01,1.582,-0.003098,-0.017278,-0.036065,0.43995769958143727,0.6981474738447252,0.48440191892596035,-0.2904859863815911
498,12.451837301254272,0.6063,0.0014,0.4167,-9.65,-0.035,1.561,-0.016616,-0.014199,-0.035108,0.07801479750574519,-0.77372671670381,-0.262216994894766,0.5714043286651211
499,12.475135087966919,0.6154,-0.0019,0.4364,-9.602,-0.005,1.604,-0.056575,-0.013993,-0.031734,-0.13166590490396862,-0.7154702851784353,-0.4563098754794582,0.5123940456840115
500,12.500384330749512,0.6099,-0.0008,0.4215,-9.569,0.189,1.522,-0.063396,-0.011886,-0.047036,-0.35924705774244364,-0.555928529447836,-0.6645015171915554,0.34687570583637695
501,12.524149417877197,0.6141,0.0008,0.4359,-9.586,-0.017,1.599,-0.053089,-0.014277,-0.057321,-0.5250774847232951,-0.25160613034884505,-0.8120624491892204,0.03927554995595384
502,12.54906702041626,0.6076,0.0025,0.4154,-9.589,-0.133,1.568,-0.039102,-0.011411,-0.050437,-0.5233810237409953,0.08189394941508549,-0.7952523463002308,-0.2948548638584837
503,12.578124523162842,0.6162,0.0008,0.4356,-9.596,-0.29,1.561,-0.026272,-0.012634,-0.03322,-0.41750212356646743,0.3113869353844108,-0.6760126217437332,-0.5212840766151978
504,12.599442720413208,0.6113,0.0033,0.4192,-9.582,-0.222,1.561,-0.043613,-0.009915,-0.011149,-0.3384046662411313,0.40757989064968314,-0.5825913417494373,-0.6163994184964903
505,12.624557256698608,0.6159,0.0002,0.4348,-9.54,-0.09,1.608,-0.022761,-0.013972,-0.004985,-0.3066346261145823,0.4422789523654528,-0.5387722721401393,-0.6481427104697233
506,12.651558876037598,0.6087,0.0047,0.4151,-9.584,-0.113,1.637,-0.016428,-0.01236,-0.003582,-0.28618378174898707,0.4662109116381292,-0.5069341892235142,-0.666156105375978
507,12.675521612167358,0.6156,0.0005,0.4346,-9.615,-0.094,1.654,-0.014361,-0.010777,-0.006789,-0.25142449773176984,0.49714883809566096,-0.4613080234706617,-0.6905241937847314
508,12.699645757675171,0.6123,0.0012,0.4186,-9.6,-0.117,1.608,-0.012755,-0.011629,-0.006015,-0.21213639303945803,0.5257177693481949,-0.4124643235170047,-0.7130863619263981
509,12.724356174468994,0.6164,-0.0003,0.4372,-9.564,-0.139,1.589,-0.01364,-0.01156,-0.001706,-0.19188849913039113,0.5420041526576762,-0.38293158805893,-0.7230309130804755
510,12.750187635421753,0.6076,0.0028,0.4137,-9.579,-0.145,1.576,-0.002092,-0.011558,0.004244,-0.2013990259036666,0.5442719097009006,-0.38375923321495276,-0.7182864133462782
511,12.775921106338501,0.6169,-0.0003,0.4356,-9.597,-0.173,1.621,-0.014821,-0.011321,0.013979,-0.24690037786771984,0.5285921690346871,-0.4200319237432691,-0.6951285530608784
512,12.802346467971802,0.6118,0.0014,0.4181,-9.598,-0.064,1.622,-0.011702,-0.010306,0.013063,-0.3121744186308844,0.4947761586945971,-0.47682626376440973,-0.656033840075618
513,12.825270175933838,0.6164,-0.0003,0.4351,-9.631,-0.071,1.565,0.00321,-0.012176,0.010979,-0.36797841112754565,0.4596010664023513,-0.5254938081458598,-0.6141783180040067
514,12.856180191040039,0.6079,0.0031,0.4132,-9.582,-0.108,1.685,-0.006038,-0.010333,0.013047,-0.41908134980858497,0.42060910473034746,-0.5698353380515263,-0.5681078161478266
515,12.875914573669434,0.6167,-0.0006,0.4335,-9.563,-0.081,1.683,-0.008527,-0.006659,0.013874,-0.4673618301340137,0.3740956872169112,-0.6117607269332598,-0.5170823430765952
516,12.901069641113281,0.6113,-0.0002,0.4178,-9.584,-0.11,1.645,-0.013654,-0.005167,0.013818,-0.5090231230663973,0.3233086025006193,-0.6491708934294627,-0.4636207058111412
517,12.927580118179321,0.6164,-0.0027,0.4345,-9.614,-0.095,1.636,-0.018181,-0.003264,0.01865,-0.5516257310567645,0.25582711719194157,-0.6882641820570244,-0.39566899631222785
518,12.957262516021729,0.6076,0.0028,0.4132,-9.628,-0.069,1.659,-0.019522,-0.0024,0.018447,-0.5913789947577879,0.16978241281921697,-0.7249492061640307,-0.3096667004033446
519,12.975972652435303,0.6154,-0.0025,0.4318,-9.567,-0.006,1.659,-0.011999,0.000426,0.017099,-0.6186544818973185,0.07698520707247114,-0.7508191952867336,-0.21819818035297797
520,13.001308679580688,0.6102,0.0014,0.4167,-9.571,-0.049,1.645,-0.009441,0.000528,0.010838,-0.6304196656580774,0.0038154180182643493,-0.7623527318053175,-0.14620123134184973
521,13.026654481887817,0.6154,-0.0017,0.4334,-9.587,-0.034,1.629,-0.00056,0.001254,0.010983,-0.6338411744552965,-0.059660164315155084,-0.7665827953154627,-0.08388592423851837
522,13.050464868545532,0.6084,0.0001,0.414,-9.581,-0.066,1.644,0.003448,0.003525,0.013137,-0.6304301527129662,-0.12840893730424294,-0.7653643228222758,-0.016923968845991955
523,13.08574390411377,0.6159,-0.0017,0.4353,-9.618,-0.036,1.678,0.003606,0.005158,0.011575,-0.6194338097656285,-0.19787607190970735,-0.7580397202209145,0.05022547214532888
524,13.102779865264893,0.6102,-0.0016,0.4205,-9.576,-0.061,1.652,0.000497,0.007243,0.01344,-0.6003923384578258,-0.2708492561434016,-0.7428032247889147,0.1200545276568056
525,13.125736713409424,0.6159,-0.0028,0.4369,-9.612,-0.047,1.614,0.005869,0.007906,0.014345,-0.5706019727317364,-0.34801967508913434,-0.7184359391987782,0.19273166769649908
526,13.153258562088013,0.6082,0.0006,0.4129,-9.592,-0.055,1.625,0.020911,0.00611,0.01371,-0.5259258385716019,-0.43122765562934656,-0.6804902934005064,0.272722719865558
527,13.174205780029297,0.6164,-0.0019,0.4348,-9.619,-0.04,1.618,0.024352,0.006119,0.017736,-0.4602169523871212,-0.5210098387955369,-0.6218358533334511,0.36065118344851943
528,13.204088926315308,0.6102,-0.0024,0.4188,-9.569,-0.107,1.619,0.011652,0.006204,0.020504,-0.37177268783545625,-0.6084125042695395,-0.5406257319688014,0.44647856741535275
529,13.250062227249146,0.6151,-0.0033,0.4361,-9.59,0.008,1.642,0.01381,0.006234,0.021712,-0.2625900102112168,-0.6850750840881767,-0.43670679635062015,0.5205821642354151
530,13.25310730934143,0.6076,0.0003,0.4172,-9.571,-0.04,1.657,0.016465,0.006552,0.019412,-0.14200882157957723,-0.7393777443822915,-0.32259864764719476,0.573658572882804
531,13.274575233459473,0.6164,-0.003,0.4332,-9.598,0.053,1.631,0.012004,0.007888,0.017411,-0.0330605560530528,-0.7685281107489997,-0.22030544933859209,0.5997808363175311
532,13.305196523666382,0.6107,-0.0016,0.4188,-9.602,0.031,1.634,-0.000225,0.009192,0.013256,0.05160442891360986,-0.7802492465008996,-0.14340095096359973,0.6066170649709866
533,13.32551646232605,0.6156,-0.0028,0.4391,-9.603,-0.027,1.598,0.001246,0.008162,0.012668,0.1232060204486122,-0.7827381751148836,-0.07752098916118405,0.6050881935573604
534,13.352803468704224,0.6087,0.0001,0.4151,-9.588,-0.032,1.599,-0.000748,0.007917,0.012543,0.5072987034483929,0.6224496339667843,0.48454923068774025,-0.34701083800670396
535,13.375603914260864,0.6159,-0.0046,0.435,-9.575,-0.006,1.633,-0.012075,0.009498,0.014546,0.4599934715501548,0.670021142700567,0.4354844865437557,-0.38708001297559236
536,13.401839971542358,0.6097,-0.0016,0.4199,-9.606,-0.025,1.614,-0.015927,0.01017,0.014255,0.40451480488585667,0.716670083205687,0.3770406415092034,-0.4249613148469389
537,13.424041986465454,0.6151,-0.0044,0.4383,-9.63,0.034,1.583,-0.004417,0.011717,0.011845,0.3455228352786519,0.7569997112476099,0.31480168852195173,-0.456580008734247
538,13.454696416854858,0.6071,-0.0013,0.4169,-9.606,0.038,1.627,-0.005605,0.009425,0.013729,0.2778743735213737,0.7927341875024342,0.24639498491703246,-0.4833713395648265
539,13.475217580795288,0.6146,-0.0033,0.4377,-9.594,0.055,1.557,-0.013786,0.009747,0.014369,0.2090123137803792,0.8206102144254922,0.17408064236681847,-0.5026018887965661
540,13.499084711074829,0.6094,-0.0032,0.4207,-9.586,-0.015,1.613,-0.023381,0.011471,0.011861,0.15206901234494952,0.8383697284329785,0.11281131335508676,-0.5111602698867995
541,13.524643898010254,0.6159,-0.0065,0.4358,-9.63,0.074,1.581,-0.027373,0.011469,0.009484,0.10336542084889869,0.8495009961694486,0.05666585816846578,-0.5142495773434099
542,13.548551559448242,0.6081,-0.0013,0.4167,-9.631,0.015,1.571,-0.024561,0.009912,0.007043,0.06957879259895115,0.856235819690692,0.01576677002010604,-0.5116350473357097
543,13.583563327789307,0.6148,-0.0063,0.4347,-9.575,0.035,1.592,-0.027817,0.010114,0.008005,0.04024424940457396,0.8607345571977206,-0.021351436842536917,-0.5070113791427818
544,13.602414846420288,0.6086,-0.0035,0.4212,-9.595,0.031,1.553,-0.021361,0.008454,0.0052,0.013671213938960473,0.8630073018723547,-0.05420978291062551,-0.502088432710032
545,13.639492988586426,0.6156,-0.0055,0.4399,-9.581,0.017,1.58,-0.015502,0.007485,0.002379,-0.002340571676179397,0.8645617564434166,-0.0749207190073435,-0.49690479659903225
546,13.64835238456726,0.6084,-0.0021,0.4161,-9.643,0.062,1.566,-0.007107,0.004405,0.002102,-0.007584520363381163,0.8655193250178455,-0.0838790273900443,-0.4937439435938539
547,13.675968408584595,0.6143,-0.0052,0.4364,-9.646,0.06,1.533,-0.001712,0.005182,0.001606,-0.014261874545679995,0.8668417788675199,-0.0920283078152932,-0.4898088605822588
548,13.69904088973999,0.6084,-0.0046,0.4215,-9.582,0.029,1.607,0.002432,0.005306,-0.001966,-0.016281271376686293,0.868537504363213,-0.09329093010801787,-0.48649185612552776
549,13.724215984344482,0.6143,-0.0052,0.4396,-9.573,0.054,1.481,0.01162,0.004051,-0.004549,-0.006855660154459348,0.8710004390257682,-0.08364455903488674,-0.484060763628519
550,13.7502601146698,0.6066,-0.0027,0.4183,-9.631,-0.148,1.594,0.014711,0.001589,-2.8e-05,0.001764995688255007,0.8729669146608043,-0.06918774157774421,-0.4828443922354155
551,13.77895450592041,0.6148,-0.0071,0.4372,-9.628,-0.176,1.652,-0.018527,0.006706,0.016775,-0.05458986997106967,0.8690589646338097,-0.12686211349108079,-0.4750394365173576
552,13.80120587348938,0.6084,-0.004,0.4185,-9.602,-0.098,1.572,-0.047926,0.013612,0.034202,-0.1888987723102775,0.8369578507111194,-0.2740241782809491,-0.4344301551114337
553,13.825262069702148,0.6148,-0.0079,0.4385,-9.586,-0.024,1.662,-0.059686,0.016354,0.037323,-0.3488380278035828,0.7482633138089513,-0.45310766995061413,-0.3363145595981222
554,13.849853754043579,0.6065,-0.0059,0.4177,-9.565,0.122,1.563,-0.070969,0.016145,0.036276,-0.46837352266328247,0.6199785547176193,-0.5968320857715459,-0.20011071023767274
555,13.87906002998352,0.6138,-0.0079,0.4366,-9.598,0.126,1.511,-0.048911,0.011911,0.024201,-0.5305801159407357,0.5004920485249572,-0.679923296749332,-0.07547688698619456
556,13.905627012252808,0.6068,-0.0078,0.4201,-9.649,0.039,1.591,-0.038266,0.010912,0.019834,-0.5593059111534613,0.404871781641826,-0.7229602867836397,0.024169441712365347
557,13.925179243087769,0.6143,-0.0098,0.4393,-9.588,-0.038,1.597,-0.051264,0.017592,0.023457,-0.5693995847066626,0.30982685574877,-0.7511206061313728,0.12493705390135504
558,13.948692798614502,0.6071,-0.0064,0.4171,-9.569,-0.042,1.624,-0.068033,0.022426,0.034559,-0.5579445700339817,0.174657770231865,-0.765977848350802,0.26733958910551253
559,13.97557020187378,0.6135,-0.012,0.4374,-9.598,0.051,1.6,-0.086175,0.022382,0.038645,-0.5040033647012966,0.011484641784745397,-0.7462510204692814,0.4346931398370625
560,14.002124071121216,0.6068,-0.0111,0.4206,-9.614,0.063,1.536,-0.087175,0.022767,0.039533,-0.3949965903664853,-0.15698640648474227,-0.6747754436141995,0.6033332930256035
561,14.024941444396973,0.6134,-0.0139,0.4422,-9.622,0.084,1.518,-0.086044,0.022063,0.03837,-0.24302318818773191,-0.29313031865181044,-0.5602141989000328,0.7356455652289033
562,14.053346872329712,0.6065,-0.0122,0.4206,-9.586,0.084,1.461,-0.08655,0.020592,0.041751,-0.04488750677208608,-0.3917366450782273,-0.39998873111284294,0.8273672265816304
563,14.076351642608643,0.6132,-0.0155,0.4376,-9.592,0.099,1.526,-0.073949,0.018182,0.040327,0.16573385258989373,-0.43122919275144395,-0.2243138657246368,0.858054172572058
564,14.105095148086548,0.607,-0.0138,0.4203,-9.602,0.099,1.559,-0.065326,0.015363,0.039933,0.37799538179163206,-0.41112140744301984,-0.041462511602351426,0.828480259160044
565,14.124510288238525,0.6137,-0.0174,0.4406,-9.639,0.136,1.49,-0.058049,0.015868,0.035794,0.5601690310734334,-0.3399751247008782,0.11308273289066749,0.746886783075488
566,14.153472423553467,0.606,-0.0149,0.4181,-9.626,0.157,1.541,-0.058276,0.014883,0.033932,0.703494756392163,-0.2333414925768108,0.23209663723093726,0.6299031882415329
567,14.173736572265625,0.6124,-0.0207,0.4405,-9.614,0.134,1.504,-0.060866,0.013478,0.029708,0.7995136536071077,-0.1197607572367416,0.30309820358253753,0.5045460907656847
568,14.199959516525269,0.6065,-0.0184,0.4222,-9.607,0.178,1.467,-0.0505,0.015558,0.027085,0.8649391346975226,0.005979550137369977,0.34375548497910147,0.3656182500855755
569,14.224613428115845,0.6131,-0.0215,0.4435,-9.619,0.193,1.493,-0.049403,0.015083,0.021256,0.8954855228573981,0.11389421814352052,0.3523705809169641,0.24691852731322023
570,14.25032114982605,0.6049,-0.0173,0.42,-9.63,0.236,1.575,-0.047446,0.015821,0.008239,0.9066775151443335,0.1722978767743174,0.34165482526349517,0.17754240497675372
571,14.278400897979736,0.6137,-0.0218,0.4394,-9.615,0.082,1.522,-0.063232,0.023158,0.003205,0.9156253442785558,0.18013864355204512,0.3230847355080758,0.15746920872247464
572,14.303817510604858,0.6067,-0.0211,0.4235,-9.635,0.203,1.501,-0.054087,0.020153,0.000696,0.9258576577175471,0.16475381542070394,0.3019618252030229,0.15640599115813048
573,14.33210563659668,0.6126,-0.022,0.4413,-9.621,0.054,1.508,-0.044215,0.022272,-0.001575,0.933143390464674,0.13947082057954802,0.2828705047648496,0.17255602154963964
574,14.349072933197021,0.6054,-0.0173,0.42,-9.604,0.106,1.448,-0.052705,0.023133,-0.000174,0.9409534841372226,0.12106997017191783,0.26215938877393474,0.1766948156858867
575,14.376126289367676,0.6113,-0.0226,0.4389,-9.622,0.141,1.464,-0.047591,0.023349,-0.000932,0.9482705222503861,0.11207297501625903,0.24264175963515802,0.17131153312938172
576,14.402747869491577,0.6059,-0.0203,0.4259,-9.63,0.152,1.499,-0.034477,0.026431,-0.006021,0.9527676564950013,0.08545520058404003,0.22110415259715804,0.18985298294853697
577,14.424948930740356,0.6121,-0.0221,0.4424,-9.605,0.165,1.434,-0.028593,0.025431,-0.012272,0.948914405733276,0.02996742381045365,0.1945938926629261,0.24656970827804037
578,14.450008630752563,0.6043,-0.019,0.4256,-9.621,0.124,1.461,-0.024389,0.024255,-0.019343,0.9285917968954837,-0.053554288051835,0.15183642197225336,0.33435746429882757
579,14.477824211120605,0.6126,-0.0223,0.4413,-9.579,0.059,1.522,-0.023551,0.023376,-0.018753,0.8901166032647512,-0.1373266893598088,0.09376834479681398,0.4243127508053012
580,14.501360416412354,0.6054,-0.0211,0.4251,-9.626,0.074,1.482,-0.02803,0.026719,-0.013819,0.8404242814577753,-0.20977050076264614,0.023417714412333063,0.4991342252317241
581,14.52450680732727,0.6137,-0.0229,0.4437,-9.655,0.079,1.474,-0.032509,0.027006,-0.008011,0.8024610275285834,-0.25100415195058173,-0.037564869602441334,0.5400389759758929
582,14.54921293258667,0.6065,-0.0181,0.4232,-9.633,0.141,1.411,-0.029494,0.026287,-0.009753,0.7631720697456152,-0.2837480168320139,-0.09961137224212467,0.5719554435654354
583,14.578182458877563,0.6134,-0.0234,0.4448,-9.615,0.066,1.423,-0.032262,0.026048,-0.011035,0.7189790810236161,-0.3100216959911767,-0.16476881195596924,0.5998390348016787
584,14.601558685302734,0.6067,-0.0211,0.4248,-9.616,0.12,1.417,-0.026967,0.02721,-0.011313,0.66964628068394,-0.3328138075131241,-0.23708859417144776,0.6201595172280998
585,14.625552415847778,0.6144,-0.0229,0.4456,-9.613,0.059,1.382,-0.024617,0.026757,-0.013428,0.6111097062817863,-0.34663804841148743,-0.3156365002509729,0.6377778531675287
586,14.650331497192383,0.6059,-0.019,0.4248,-9.625,0.059,1.336,-0.020275,0.0204,-0.012224,0.5469016135362733,-0.35399350054997736,-0.3977032613869706,0.6460799815517897
587,14.677432775497437,0.6147,-0.0245,0.4424,-9.572,-0.025,1.359,-0.017618,0.018406,-0.004626,0.5058283576328015,-0.3492722035475239,-0.45191097316049517,0.6464696998163902
588,14.700397968292236,0.6077,-0.019,0.4246,-9.609,0.007,1.316,-0.014935,0.01315,-0.000639,0.49223103659275286,-0.3445544446306256,-0.4763520072419278,0.6419342696076379
589,14.723857879638672,0.6142,-0.0234,0.4467,-9.633,-0.002,1.366,-0.01795,0.010364,0.008739,0.5109834497052669,-0.3382942879324162,-0.46543136367324617,0.6386129771535078
590,14.75153660774231,0.607,-0.0187,0.4238,-9.663,0.056,1.298,-0.022839,0.007646,0.009424,0.5487964328365947,-0.3339418349625905,-0.43532073572359664,0.6307148192461577
591,14.775065660476685,0.6142,-0.0223,0.4451,-9.653,0.116,1.379,-0.018987,0.005606,0.002519,0.5686650392461158,-0.3302813575873973,-0.4218842861636519,0.6241377628838245
592,14.800644159317017,0.6085,-0.0195,0.4238,-9.607,0.079,1.451,-0.019209,0.005304,-0.002934,0.5605160596153883,-0.3293337110363297,-0.43387573136367497,0.623789149810987
593,14.824539422988892,0.6152,-0.0234,0.447,-9.612,0.054,1.357,-0.017346,0.004468,-0.005742,0.5272886475851997,-0.33082636520040665,-0.4712250889498438,0.6248739983070749
594,14.852604627609253,0.6078,-0.0176,0.4249,-9.635,0.04,1.398,-0.010229,0.003065,-0.005494,0.4939125336336938,-0.3287190517746148,-0.5081189191700968,0.6243471455058923
595,14.878843545913696,0.6155,-0.0223,0.4451,-9.651,0.008,1.322,-0.010028,0.00073,-0.000837,0.4675767871529346,-0.3236585748221145,-0.535393547658595,0.6244764400563092
596,14.904520988464355,0.6093,-0.0203,0.4262,-9.625,0.023,1.37,-0.01611,0.002542,0.004924,0.4647794408714926,-0.32282847975997186,-0.5418182178333271,0.6214457842989727
597,14.924908876419067,0.6142,-0.0231,0.4419,-9.584,0.061,1.388,-0.013691,0.001664,0.008278,0.4835805295222272,-0.32495819427998734,-0.5255664436944751,0.6199451239421393
598,14.955341815948486,0.6083,-0.0195,0.4257,-9.591,0.087,1.374,-0.008269,-0.002209,0.001931,0.49404894548943157,-0.32522357571259364,-0.5156992573055244,0.6198383186573947
599,14.976299285888672,0.6152,-0.0229,0.4457,-9.668,0.134,1.354,0.003426,-0.00432,-0.001023,0.48765944491081176,-0.32171895597569183,-0.5187937248607583,0.6241299946327605
600,15.003368616104126,0.6088,-0.0203,0.4257,-9.7,0.075,1.392,0.002401,-0.001449,-0.006031,0.4599610929195521,-0.31679019559930405,-0.5431359819392102,0.6269633722119143
601,15.026615142822266,0.6142,-0.0229,0.4435,-9.632,0.103,1.403,0.00792,-0.002143,-0.007434,0.42292689916700865,-0.30900157611109036,-0.5767533578679395,0.6269022476510172
602,15.049949169158936,0.6091,-0.0179,0.4243,-9.609,0.059,1.337,0.01263,-0.003817,-0.011257,0.3720465778853554,-0.2919764798473769,-0.6220190967236395,0.6240379174463986
603,15.074111938476562,0.6152,-0.0223,0.4446,-9.617,0.091,1.314,0.016933,-0.008378,-0.014532,0.30344872220063546,-0.2626760460155553,-0.6817895998036354,0.6116233395187219
604,15.0985426902771,0.6091,-0.019,0.4243,-9.663,-0.037,1.316,0.014663,-0.011597,-0.020148,0.22034099222055983,-0.216704814364452,-0.7524552472862722,0.5816356001912903
605,15.124448537826538,0.6163,-0.0221,0.4454,-9.667,0.083,1.394,0.013821,-0.012533,-0.019015,0.1430063255988294,-0.15758896528644517,-0.8193209000561104,0.5323797249989095
606,15.149969816207886,0.6093,-0.0165,0.426,-9.59,-0.006,1.38,0.003375,-0.012021,-0.015542,0.07648961162761339,-0.08846246910258854,-0.8746462938675887,0.4704440365197778
607,15.17560601234436,0.6168,-0.0215,0.4457,-9.568,0.023,1.428,-0.005752,-0.010614,-0.015815,0.02656033128160017,-0.014127104758753463,-0.9179171431412584,0.39562999385882963
608,15.20167326927185,0.6106,-0.0171,0.4265,-9.604,-0.022,1.392,0.003,-0.012728,-0.013735,-0.00880416885731351,0.0613629212672589,-0.9454831891676838,0.31971646423915323
609,15.22590708732605,0.6173,-0.0199,0.4449,-9.63,0.02,1.46,0.00048,-0.013075,-0.012274,-0.030295645771606056,0.13118837561334334,-0.9587505789542726,0.2503379941320557
610,15.24957275390625,0.6099,-0.0154,0.4238,-9.648,-0.002,1.409,0.003136,-0.011459,-0.015063,-0.04256873627686503,0.20410594815991645,-0.9613350928802785,0.1798985931417997
611,15.273980379104614,0.6176,-0.0193,0.4433,-9.64,-0.048,1.413,-0.001623,-0.009509,-0.008846,-0.0440846017449312,0.2646961750376247,-0.9557413063356693,0.12062768410787936
612,15.31564736366272,0.6119,-0.0168,0.4238,-9.593,-0.039,1.383,-0.006534,-0.007007,-0.000348,-0.044495286067188194,0.29201619662682365,-0.9510207241863585,0.09113886434149482
613,15.324992418289185,0.6192,-0.0191,0.4441,-9.627,-0.039,1.435,-0.008561,-0.009748,0.006686,-0.05051518940616788,0.2830915892050797,-0.9530208048838095,0.0951772725981221
614,15.34916067123413,0.6112,-0.0149,0.422,-9.639,-0.049,1.416,-0.019038,-0.006552,0.01076,-0.05969759945753948,0.2458500598301413,-0.9594363359406428,0.12440201757735726
615,15.377221584320068,0.6186,-0.0196,0.4433,-9.622,0.094,1.379,-0.011504,-0.008255,0.010507,-0.0667032284607303,0.19886310953808278,-0.9643046883196729,0.16161872126229246
616,15.399967432022095,0.6109,-0.0176,0.4227,-9.616,-0.003,1.382,-0.015431,-0.007624,0.00853,-0.07023423018119646,0.15651566467373404,-0.965525679242004,0.19578090393820466
617,15.424740076065063,0.6184,-0.0201,0.4406,-9.592,0.051,1.392,-0.011062,-0.007443,0.011198,-0.07060524298196008,0.1124956048718469,-0.964009087650614,0.23031742764065138
618,15.449973106384277,0.6119,-0.0178,0.4219,-9.664,0.031,1.47,-0.021984,-0.007356,0.008366,-0.0704704332945478,0.07974308866341485,-0.9617108258005165,0.2525613695318156
619,15.477770805358887,0.6199,-0.0207,0.4422,-9.648,0.039,1.386,-0.016228,-0.006712,0.011232,-0.06696172391812191,0.041116901255212876,-0.9570297173054239,0.27914091093099
620,15.501919984817505,0.6132,-0.0168,0.4238,-9.65,0.033,1.405,-0.012792,-0.009492,0.009913,-0.060856194894387435,0.0005281730158062173,-0.9487974351969124,0.30996721042717235
621,15.525657653808594,0.6197,-0.0188,0.4409,-9.616,0.009,1.427,-0.014322,-0.007732,0.009625,-0.0538022478012581,-0.039747832690951834,-0.9372302528675701,0.34223512537098627
622,15.550538539886475,0.6117,-0.017,0.4206,-9.626,0.059,1.459,-0.020079,-0.006564,0.009139,-0.043553608029086394,-0.07889611285003695,-0.9245494652684582,0.370252309751892
623,15.58102035522461,0.6205,-0.0201,0.4411,-9.653,0.073,1.42,-0.023228,-0.009408,0.008135,-0.03438069484448907,-0.11270330623372364,-0.9129686375969643,0.3906458746106764
624,15.603924989700317,0.6135,-0.0162,0.4193,-9.646,0.087,1.433,-0.023144,-0.007388,0.001851,-0.0329768475018888,-0.12941280692066648,-0.9098384817466227,0.3928852123289344
625,15.625158548355103,0.6205,-0.0215,0.4406,-9.586,0.026,1.439,-0.018997,-0.009384,0.00207,-0.03883482798415777,-0.13539556242424705,-0.9113967495001866,0.38667281105833773
626,15.649352550506592,0.6135,-0.0157,0.4195,-9.627,0.016,1.447,-0.022172,-0.010648,0.000571,-0.0457737613750433,-0.13904838204435177,-0.9150692208056311,0.375790674917039
627,15.675052404403687,0.622,-0.0236,0.4381,-9.634,-0.017,1.378,-0.020296,-0.012244,0.001556,-0.05228708153945949,-0.14419623417815106,-0.9155189655299711,0.371885104444716
628,15.699629068374634,0.6143,-0.0186,0.4203,-9.632,0.001,1.447,-0.023402,-0.008615,0.003814,-0.052120773859991795,-0.1629797529420727,-0.9104486914307401,0.37656899146800354
629,15.725245475769043,0.6218,-0.022,0.4422,-9.662,0.034,1.47,-0.020409,-0.012556,0.007671,-0.04661480058092467,-0.19092720431587876,-0.8990257881165146,0.39131380670812427
630,15.752002477645874,0.6146,-0.0178,0.4195,-9.607,0.071,1.444,-0.017524,-0.008597,0.006346,-0.04065065111700718,-0.21723291631971198,-0.8864221965945797,0.40671006136489507
631,15.775484800338745,0.6233,-0.0231,0.4374,-9.596,0.063,1.447,-0.019279,-0.008688,0.008083,-0.030903792806701802,-0.24510119303838787,-0.8706773974975462,0.4253130967278336
632,15.802335739135742,0.6151,-0.02,0.4206,-9.606,0.059,1.459,-0.014117,-0.0109,0.008301,-0.02012305721678545,-0.2730103073062865,-0.8532065198653346,0.44395840923679025
633,15.8263840675354,0.6228,-0.0234,0.439,-9.605,0.075,1.5,-0.015739,-0.00912,0.004795,-0.01245979584782761,-0.2941433527686471,-0.8389400697887537,0.4577160700830708
634,15.852136611938477,0.6138,-0.0184,0.419,-9.66,0.132,1.458,-0.01021,-0.009183,0.00269,-0.012037486787719154,-0.3075442985687278,-0.831484454517688,0.46249887051227245
635,15.878387689590454,0.6226,-0.0223,0.4368,-9.629,0.034,1.466,-0.0112,-0.006879,-0.000444,-0.021404282685618198,-0.3063880130330305,-0.834635895183124,0.4572211331776467
636,15.899523258209229,0.6159,-0.0203,0.4187,-9.633,0.03,1.466,-0.010547,-0.007556,0.00079,-0.030010678685686035,-0.30676473688035866,-0.8373432689544874,0.45149862160161847
637,15.923749446868896,0.622,-0.0225,0.4379,-9.616,0.087,1.456,-0.011647,-0.007401,-0.003592,-0.04407071066763371,-0.2993824259064351,-0.8457923151484629,0.4393896848532414
638,15.949619054794312,0.6154,-0.0173,0.4185,-9.642,0.065,1.487,-0.008481,-0.007591,-0.006474,-0.06832455263096243,-0.27679854423548006,-0.8647530001601048,0.41342057294115836
639,15.9765625,0.6218,-0.0228,0.4365,-9.615,0.052,1.469,-0.002331,-0.005858,-0.010304,-0.09958534386561887,-0.23753654332612417,-0.8905850927858895,0.37485642902235455
640,15.998682260513306,0.6151,-0.0189,0.416,-9.609,0.032,1.466,0.003484,-0.007467,-0.007472,-0.12760675641425517,-0.19486712806142625,-0.9126039514791183,0.33600200276668535
641,16.02617049217224,0.6215,-0.0217,0.4374,-9.636,0.032,1.504,0.005181,-0.004275,-0.003859,-0.1461418016455139,-0.16313143943389385,-0.9255338079131694,0.3088978434527787
642,16.0489821434021,0.6156,-0.0165,0.4185,-9.629,0.046,1.468,0.004733,-0.000692,-0.004197,-0.15968643927273912,-0.133527572956251,-0.9355113449110679,0.2854630482487914
643,16.07418966293335,0.6228,-0.0239,0.4365,-9.629,0.056,1.465,0.008892,-0.003016,-0.005496,-0.16941299391313602,-0.10634317929237518,-0.9433439440869544,0.2647500120223726
644,16.100813627243042,0.6146,-0.0181,0.4182,-9.624,0.058,1.477,0.007899,-0.001793,-0.007099,-0.18167466581268948,-0.06769084717839888,-0.953001227651787,0.23281092135959824
645,16.12451410293579,0.6231,-0.0241,0.4352,-9.613,-0.01,1.537,0.008005,-0.00056,-0.006851,-0.1908715986815216,-0.03022689532131123,-0.9599356883618358,0.2029232412152024
646,16.150620937347412,0.6151,-0.0162,0.4182,-9.594,0.011,1.462,0.002955,-0.002937,-0.006352,-0.1989612701294951,0.007576043800608792,-0.9651697891007605,0.16971828055923488
647,16.173722743988037,0.6226,-0.0201,0.436,-9.637,0.03,1.497,0.00776,-0.00274,-0.004788,-0.20473913263268934,0.03704021953669933,-0.9671258234533592,0.1462106402254947
648,16.19984221458435,0.6148,-0.0192,0.4179,-9.607,0.038,1.454,0.006799,-0.000773,-0.003734,-0.20860965520052188,0.06203649759873944,-0.9676973863512145,0.12726057194523827
649,16.227800130844116,0.622,-0.0225,0.4379,-9.623,0.076,1.499,0.01801,-0.002812,-0.005431,-0.21153218234873827,0.0857434639494679,-0.9670546266776288,0.11272773945271078
650,16.249065399169922,0.6154,-0.0178,0.4168,-9.636,-0.016,1.469,0.016028,-0.003647,-0.004567,-0.21509474233545173,0.11515389138075328,-0.9651778864184709,0.09436885443984322
651,16.276413202285767,0.6234,-0.0204,0.4377,-9.587,-0.027,1.466,0.008071,0.000376,-0.00106,-0.21648727313116609,0.13088934813126485,-0.963544663730604,0.087079963908363
652,16.300405979156494,0.6161,-0.0165,0.419,-9.644,0.018,1.477,3.4e-05,0.001558,-0.001972,-0.21593755453922756,0.1468725892030187,-0.9623505991010023,0.07537068057514976
653,16.324129819869995,0.6226,-0.0209,0.4379,-9.65,0.065,1.476,0.005532,-0.00162,-0.001623,-0.21599806499864274,0.15425407738457314,-0.9615161675555035,0.07097305866632034
654,16.349093198776245,0.6154,-0.0164,0.4174,-9.646,0.036,1.435,0.011347,-0.002283,-0.001323,-0.21812295040385632,0.1599568961636068,-0.960123692993109,0.07070123075375988
655,16.374791145324707,0.6215,-0.0206,0.4352,-9.584,-0.003,1.495,0.011524,-0.000736,-0.003644,-0.21843514583393606,0.176282485465447,-0.9577343141719131,0.06289320981065274
656,16.401537895202637,0.6148,-0.017,0.4174,-9.602,0.018,1.429,0.010954,0.000723,-0.003186,-0.21942404142632696,0.189450056951182,-0.9554194142959935,0.05599561368207439
657,16.425294160842896,0.6223,-0.0206,0.4384,-9.642,0.021,1.427,0.017875,-0.001421,-0.003887,-0.2195508822497075,0.2109391535191633,-0.9514797483737019,0.04459116561283028
658,16.450059175491333,0.6148,-0.0154,0.4187,-9.637,0.024,1.463,0.021076,-0.003568,-0.000958,-0.22205168423192376,0.22452865385478574,-0.947865313870715,0.042793456143373085
659,16.475374937057495,0.6244,-0.0185,0.4369,-9.623,0.033,1.556,0.010691,-0.000598,-0.002379,-0.22247288159991147,0.24073159509042014,-0.944058860473467,0.03615223422407978
660,16.499176740646362,0.6148,-0.0151,0.4179,-9.594,0.044,1.467,0.00981,0.001214,-0.005249,-0.22049544189234282,0.2626231776962066,-0.9391507393457316,0.020167186908767044
661,16.523058891296387,0.6218,-0.0182,0.4377,-9.627,0.018,1.465,0.011443,0.000961,-0.006304,-0.21496782907351078,0.2899656034321725,-0.9325808034637407,-0.001351406882329799
662,16.55146312713623,0.6154,-0.0137,0.4161,-9.637,0.034,1.446,0.003443,0.001815,-0.006922,-0.20652063508620092,0.3189272109811094,-0.9246176017854211,-0.026775956527815094
663,16.576282501220703,0.6228,-0.0214,0.4382,-9.626,-0.002,1.507,0.001618,0.001378,-0.006779,-0.19498390238083663,0.3504596710444309,-0.9143882379649985,-0.05525800444311434
664,16.598597049713135,0.6143,-0.0143,0.4171,-9.624,0.061,1.501,0.000359,0.000672,-0.006118,-0.1814140284412598,0.3829395840256356,-0.9015123008522483,-0.0878737542334018
665,16.625028371810913,0.6223,-0.0168,0.4358,-9.585,-0.001,1.45,0.004712,0.002838,-0.009236,-0.16604672127214035,0.4140565784984412,-0.8874377647358246,-0.1159303665034308
666,16.650404930114746,0.6141,-0.014,0.4177,-9.593,0.013,1.486,0.002864,0.002186,-0.009179,-0.1394949935239311,0.4600170493822076,-0.8623145326093172,-0.1591826243979566
667,16.676519870758057,0.6229,-0.0155,0.4358,-9.625,0.003,1.449,0.003386,0.002284,-0.006111,-0.11594237620828607,0.4939405604651569,-0.8405687713134515,-0.18980049741541122
668,16.699077367782593,0.6156,-0.014,0.4174,-9.648,0.016,1.485,0.003677,0.00191,-0.004754,-0.09707695789436029,0.5189391488345776,-0.8224110130034455,-0.2119394954779956
669,16.724996089935303,0.6223,-0.0168,0.439,-9.608,0.01,1.483,-0.000768,0.004658,-0.004014,-0.07683558709248117,0.5413581577505564,-0.8041775074812259,-0.23307975899755945
670,16.74897575378418,0.6162,-0.0121,0.4182,-9.593,0.062,1.479,-0.004659,0.001808,-0.004446,-0.05685914286603948,0.5595962350813064,-0.787283905360953,-0.252592842168919
671,16.77625298500061,0.6221,-0.0157,0.4353,-9.621,0.069,1.449,0.003975,0.001868,-0.007797,-0.02680177387695272,0.5879948958448402,-0.7585375306191174,-0.27957911585044337
672,16.799153804779053,0.6143,-0.0113,0.4166,-9.611,0.028,1.504,0.005077,0.001642,-0.012144,0.017285481725776708,0.6253212069085423,-0.7146686335167278,-0.3129270595191234
673,16.825859785079956,0.6239,-0.016,0.4374,-9.659,-0.007,1.478,0.002511,0.002543,-0.010427,0.07046032856208462,0.6618408774133328,-0.6609326320479043,-0.34665552206463174
674,16.84852433204651,0.6151,-0.0113,0.4169,-9.599,-0.019,1.479,0.000248,0.002509,-0.011455,0.12282709533435641,0.6890271755703495,-0.6097002426806563,-0.3720492844401404
675,16.881550788879395,0.6244,-0.0155,0.4339,-9.623,-0.006,1.455,0.002304,0.000753,-0.005881,0.16030890838311962,0.7044868998634036,-0.5731306872067249,-0.3866787777934166
676,16.90178418159485,0.6159,-0.0113,0.4177,-9.63,-0.03,1.474,0.007176,-3.5e-05,-0.00818,0.192853572704599,0.717026577387349,-0.5403771676058634,-0.3958192814221166
677,16.92538046836853,0.6239,-0.0147,0.438,-9.63,-0.005,1.478,0.005691,-0.000195,-0.00504,0.2184263022877635,0.7263731023083076,-0.5128186151895952,-0.40210587489730276
678,16.94970464706421,0.6159,-0.0124,0.4177,-9.612,0.026,1.443,0.014438,-0.002174,-0.006661,0.44327154220264414,-0.635244389644263,0.6155155958210369,-0.14531158453423934
679,16.977581024169922,0.6239,-0.0149,0.4347,-9.614,-0.005,1.518,0.012595,-0.004598,-0.008348,0.4326065753595702,-0.6678419926023395,0.5952668428682907,-0.11178555208173807
680,17.000457048416138,0.617,-0.0116,0.4175,-9.581,-0.016,1.509,0.019396,-0.003928,-0.008694,0.4179292950719468,-0.7029723377719698,0.5705470395783133,-0.07510707208046127
681,17.026856899261475,0.6247,-0.0144,0.4358,-9.646,-0.035,1.462,0.010616,-0.000458,-0.005106,0.40342118369114627,-0.7329909115127615,0.5458789473538381,-0.04463011343018364
682,17.062254667282104,0.6172,-0.0097,0.4199,-9.645,-0.052,1.438,0.005575,-0.002769,-0.002705,0.3958101267041354,-0.7464555542056865,0.5340695667855907,-0.030135477885523038
683,17.073917150497437,0.6236,-0.0152,0.4364,-9.637,-0.015,1.478,0.00351,-0.002056,-0.001626,0.3894122587905527,-0.7560716784387169,0.5257111120295667,-0.018480704941569975
684,17.099106073379517,0.6172,-0.0126,0.4169,-9.622,0.063,1.461,-0.001626,-0.002397,-0.00233,0.3793269932338831,-0.7685359977784809,0.5152181719827298,-0.003699673168105211
685,17.12497091293335,0.6237,-0.0133,0.4369,-9.623,0.02,1.468,0.003674,-0.002835,-0.011745,0.3497278685408739,-0.8012695459671216,0.48444084575230023,0.03121857841568093
686,17.15178918838501,0.6175,-0.0078,0.4188,-9.639,-0.023,1.486,0.001691,-0.002197,-0.01193,0.3094803233557082,-0.8392065099910176,0.44138313083646735,0.07166097164663798
687,17.173991680145264,0.6244,-0.0144,0.4364,-9.629,0.023,1.459,0.003058,-0.005364,-0.009825,0.26358912452248157,-0.87382798598436,0.3939438337101232,0.10841439122994527
688,17.200992584228516,0.6172,-0.0097,0.4186,-9.608,-0.006,1.46,0.011108,-0.006654,-0.009338,0.2176832034348458,-0.9030654376252126,0.3423911997809447,0.14090814249606803
689,17.226476430892944,0.6255,-0.0122,0.4383,-9.601,-0.056,1.482,0.008428,-0.00623,-0.010905,0.1698563375608135,-0.9273232741576346,0.28726425005148026,0.16940962321648675
690,17.249297380447388,0.6175,-0.0083,0.418,-9.597,-0.032,1.435,0.01007,-0.006221,-0.012688,0.11894368353646581,-0.9461066643330338,0.23139073416463588,0.19285462917479534
691,17.2773175239563,0.6252,-0.013,0.4364,-9.622,-0.005,1.498,0.009605,-0.008683,-0.011672,0.06589819799858347,-0.9596910562384708,0.17214589253296247,0.21217044035505417
692,17.300698280334473,0.6175,-0.0099,0.4183,-9.628,0.013,1.486,0.010801,-0.008638,-0.013213,0.008824810174995517,-0.967863546540667,0.10850503467823111,0.22669127784847282
693,17.32684850692749,0.6268,-0.0122,0.4353,-9.612,-0.017,1.504,0.001025,-0.008361,-0.011238,-0.0576208228905088,-0.9696248752034277,0.03823870689361253,0.23461722752445582
694,17.3492374420166,0.6175,-0.0083,0.4175,-9.589,-0.07,1.455,-0.001092,-0.008036,-0.013916,-0.13258778984554404,-0.962419123644561,-0.037950601775469786,0.2339437117171321
695,17.37778663635254,0.625,-0.0109,0.4361,-9.612,-0.053,1.462,-0.010707,-0.006899,-0.013606,-0.21119172956796226,-0.9451459670590798,-0.11319925639781397,0.2219979339206368
696,17.406427145004272,0.617,-0.008,0.4178,-9.631,-0.05,1.481,-0.012726,-0.006039,-0.016106,-0.29880598209228004,-0.9131771753268997,-0.19643899656327624,0.1955355521562914
697,17.430994033813477,0.6252,-0.0111,0.4351,-9.632,0.015,1.489,-0.007339,-0.00704,-0.014291,-0.3791527272573693,-0.8701648953704926,-0.27212916576715407,0.15812014867508567
698,17.455485343933105,0.618,-0.0059,0.4148,-9.596,-0.07,1.493,-0.002925,-0.006282,-0.014126,-0.4436229749690755,-0.8223091188136746,-0.3370613200146974,0.1157412447894636
699,17.474135160446167,0.6247,-0.0103,0.4343,-9.607,-0.05,1.45,-0.000876,-0.007569,-0.013084,-0.49914141579287125,-0.7699679540927926,-0.3915546035367823,0.0684995559080526
700,17.499918699264526,0.6175,-0.0069,0.4162,-9.624,-0.024,1.545,0.003868,-0.006844,-0.01633,-0.5485760281742884,-0.7083537232637075,-0.44400451361451754,0.012622834107320902
