,time,magX,magY,magZ,linear_accX,linear_accY,linear_accZ,angular_velX,angular_velY,angular_velZ,orientationX,orientationY,orientationZ,orientationW
0,0.0,0.616,0.0446,0.408,-9.55,-0.055,1.671,-0.013929,-0.011196,-0.000159,0.3144245510070943,-0.6755290800905172,0.28791046285678906,-0.6015855957830412
1,0.02273106575012207,0.6206,0.0456,0.418,-9.509,-0.593,1.896,-0.038494,-0.017501,0.003582,0.3137764783787648,-0.6722347266995674,0.30328630592564687,-0.5980486689838489
2,0.04549002647399902,0.6186,0.0432,0.4123,-9.722,-0.597,1.856,-0.135297,-0.012699,0.022453,0.26961405598320226,-0.6582359362706076,0.36089781445756036,-0.603147146671523
3,0.07018542289733887,0.6222,0.0402,0.421,-9.631,-0.356,1.543,-0.09089,-0.00594,0.030778,0.22004568844109737,-0.6232044587519678,0.41539371838934014,-0.6250153248623811
4,0.09672188758850098,0.6165,0.0411,0.4047,-9.648,-0.358,1.819,-0.064915,-0.01952,0.048179,0.18123292711490024,-0.5532574804826813,0.45189626496682556,-0.675907206743909
5,0.1252589225769043,0.6216,0.0391,0.4191,-9.561,-0.37,1.92,-0.06484,-0.009121,0.053154,0.12530859375724146,-0.45968499299805865,0.45906523229277907,-0.7498310316617566
6,0.1469120979309082,0.6154,0.0392,0.4085,-9.518,-0.036,1.915,-0.052076,0.001711,0.045574,0.044902282444332475,-0.38243476201357596,0.4434786378662742,-0.8093541472008301
7,0.18873310089111328,0.6235,0.0367,0.4212,-9.384,0.009,2.078,-0.021535,-0.001594,0.019648,-0.003363034068920162,-0.347000387209939,0.4219898629635426,-0.837558342346379
8,0.24346208572387695,0.617,0.0392,0.4042,-9.535,-0.137,1.957,-0.077189,0.002677,-0.004862,-0.026476909245109814,-0.34040039710278924,0.4496467376153364,-0.8253752808759022
9,0.2458784580230713,0.6235,0.0375,0.4177,-9.561,-0.1,2.004,-0.053255,0.00221,-0.02493,-0.02213492839515463,-0.3634527859075141,0.5083384274136521,-0.7803871863220355
10,0.2811870574951172,0.618,0.0362,0.4093,-9.518,-0.202,1.898,-0.069006,0.000484,-0.029769,-0.009133815801248196,-0.4058627085165153,0.5746073933206937,-0.710646451328468
11,0.28267765045166016,0.6227,0.0359,0.4182,-9.556,-0.516,1.913,-0.102942,0.004672,-0.014996,-0.020445650841470264,-0.44315839412182706,0.6349556689507295,-0.632474435489976
12,0.2967219352722168,0.6175,0.0376,0.4061,-9.592,-0.404,1.815,-0.081373,0.002002,0.001851,-0.053615692394384795,-0.4485626085645887,0.6796094809838641,-0.577968768259709
13,0.32118725776672363,0.6232,0.0359,0.4174,-9.562,-0.464,1.647,-0.055039,0.003067,0.011868,-0.0803794886843934,-0.4318287928231378,0.7037297401911997,-0.5584151540370064
14,0.34755420684814453,0.6185,0.0373,0.4093,-9.426,-0.345,1.836,-0.036887,0.004281,0.013115,-0.10489542636138899,-0.4063349371261342,0.7171581792814066,-0.5563928596674662
15,0.37885594367980957,0.6242,0.0348,0.4201,-9.54,-0.296,1.853,-0.029734,0.00768,0.010648,-0.12368684548553938,-0.3867331638611995,0.7237987818494726,-0.5579017365244192
16,0.39713072776794434,0.6173,0.036,0.4042,-9.562,0.003,1.795,0.021337,-0.002522,-0.00876,-0.1284756198171502,-0.38908734169906134,0.7273276393374952,-0.550544785369822
17,0.4236152172088623,0.6227,0.037,0.4177,-9.456,-0.334,1.763,0.028183,-0.005109,-0.015902,-0.10971504010776623,-0.41378015894015807,0.7211809151522449,-0.5446528046946784
18,0.4479818344116211,0.6178,0.0367,0.4082,-9.521,-0.304,1.931,0.001873,-0.000908,-0.016126,-0.10048307157503072,-0.4401550373085055,0.7243849124774046,-0.5209925086159094
19,0.479766845703125,0.6232,0.0332,0.4209,-9.566,-0.246,1.853,-0.001905,0.008295,-0.026446,-0.09817146808347235,-0.4827437420645586,0.7253847898890249,-0.4807678742901794
20,0.49951720237731934,0.6175,0.036,0.405,-9.576,-0.314,1.895,0.005969,0.001023,-0.027576,-0.10165384487027565,-0.5353490902660956,0.718930531126578,-0.4315167885359852
21,0.5262649059295654,0.6245,0.0373,0.4158,-9.543,-0.533,1.947,-0.02767,0.003401,-0.007629,-0.111824954978552,-0.5625693469058428,0.7162634830732014,-0.3974638753167692
22,0.5490412712097168,0.6162,0.0351,0.4085,-9.579,-0.526,1.918,-0.080907,0.015408,0.001423,-0.14403833894304113,-0.5586844952807748,0.7298123003801179,-0.36674050480043263
23,0.5744373798370361,0.6211,0.0361,0.4209,-9.617,-0.159,1.771,-0.09913,0.014158,0.003755,-0.19138994393460587,-0.5413141190945985,0.7515098820574775,-0.3249335485903291
24,0.6110594272613525,0.6149,0.0368,0.4058,-9.638,-0.341,1.709,-0.05927,0.009145,0.001173,-0.22554722481263817,-0.5290593065483701,0.7653635640000496,-0.2888655646403998
25,0.6280698776245117,0.6198,0.0348,0.4187,-9.51,-0.348,1.797,-0.05241,0.008725,0.004452,-0.24899831620585783,-0.5144471425436812,0.7760832406701622,-0.2665310105901149
26,0.6516380310058594,0.6159,0.0356,0.4117,-9.489,-0.306,1.846,-0.030326,0.011243,-0.006419,-0.2724781227282025,-0.5085995467608324,0.7798431976323398,-0.24274834865711856
27,0.6738138198852539,0.6203,0.0323,0.4214,-9.517,-0.123,1.839,0.025457,0.012087,-0.02602,-0.29503188000925346,-0.5323130527808333,0.762490937842985,-0.21955995382737853
28,0.7024576663970947,0.6115,0.0359,0.4065,-9.587,-0.31,1.872,0.044842,0.004124,-0.033038,-0.3114280995252216,-0.5825709990494528,0.7226135697256261,-0.20360058629831856
29,0.7262313365936279,0.6182,0.0375,0.419,-9.513,-0.452,1.874,0.019616,0.009214,-0.03133,-0.34169052604290895,-0.6257150599376664,0.6769239894650961,-0.18303595457281302
30,0.7501494884490967,0.6139,0.0392,0.4106,-9.434,-0.535,1.89,0.006839,0.01187,-0.027967,-0.3797272999267195,-0.6541238350054465,0.6324828737499033,-0.16701676736541943
31,0.7737233638763428,0.6193,0.0369,0.4228,-9.503,-0.499,1.883,-0.02236,0.015705,-0.015401,-0.42270143913830593,-0.6605590390916068,0.6008899328830846,-0.1546497261056094
32,0.8024709224700928,0.6118,0.0386,0.4074,-9.592,-0.425,1.756,-0.026642,0.011636,-0.000293,-0.44982486553908296,-0.6499652523856145,0.595230538885068,-0.1445799661524432
33,0.8258790969848633,0.6183,0.038,0.4177,-9.556,-0.422,1.744,0.003117,0.00887,0.003664,-0.4532678387319215,-0.6426907031806742,0.5998490922941104,-0.14723448268104578
34,0.8544073104858398,0.6128,0.0386,0.4117,-9.504,-0.386,1.847,0.018567,0.009663,0.004804,-0.44456034253196164,-0.6396596437706774,0.6064551655032436,-0.15941698219910036
35,0.8766040802001953,0.6179,0.0342,0.4238,-9.549,-0.35,1.841,0.037288,0.005761,0.006211,-0.4275031762102264,-0.6410655557228361,0.6121471117409714,-0.17762854833366817
36,0.9029099941253662,0.6102,0.0394,0.4074,-9.526,-0.289,1.831,0.055241,0.00212,0.004974,-0.4027907769306517,-0.6485693357029502,0.6135922787861096,-0.20154880852911328
37,0.9272048473358154,0.6172,0.0396,0.4212,-9.53,-0.402,1.779,0.077069,0.001624,-0.002279,-0.3716847448481514,-0.6663365297003824,0.6038168501614815,-0.2307624126565741
38,0.9519467353820801,0.6112,0.04,0.4122,-9.57,-0.518,1.757,0.07148,-4.6e-05,0.005854,-0.33326577859579415,-0.6812928469732679,0.5952796747247154,-0.26536029533378924
39,0.9800543785095215,0.6167,0.038,0.4241,-9.565,-0.485,1.79,0.0576,0.007417,0.018732,-0.29127061806216314,-0.681382552387124,0.5981805869555661,-0.3050561091759815
40,1.0033016204833984,0.6107,0.0408,0.4106,-9.539,-0.32,1.815,0.055352,0.009211,0.022219,-0.25172295903142267,-0.6681224932190136,0.6049316578201783,-0.35256995804833463
41,1.0283503532409668,0.6162,0.0383,0.4193,-9.512,-0.256,1.846,0.064717,0.010279,0.013858,-0.21702076607442733,-0.6576663480943931,0.6001775414218783,-0.4002047981339588
42,1.0519888401031494,0.6112,0.0402,0.4109,-9.51,-0.17,1.838,0.081732,0.004977,0.003093,-0.1847913167583869,-0.6583163936111298,0.5822797582569094,-0.4397976560622087
43,1.078092098236084,0.6182,0.0385,0.4228,-9.492,-0.244,1.818,0.097114,-0.000687,-0.012561,-0.1466736988530723,-0.6775546876672072,0.5476850508783486,-0.4684522988836026
44,1.1026496887207031,0.6107,0.0408,0.4085,-9.571,-0.354,1.826,0.08819,-0.001377,-0.020359,-0.1117160196987371,-0.7064546301674871,0.5074019971854293,-0.4806085722392267
45,1.130673885345459,0.6185,0.0407,0.4231,-9.63,-0.433,1.772,0.062022,0.002884,-0.015337,-0.08650244949822261,-0.7323335795029781,0.4699844638160227,-0.4850973699523924
46,1.1570665836334229,0.6136,0.0408,0.4123,-9.573,-0.45,1.712,0.042671,0.005236,-0.006686,-0.07140301431130289,-0.7460803730012254,0.4450511006548443,-0.4900971376936655
47,1.1849675178527832,0.6188,0.0396,0.4252,-9.545,-0.47,1.75,0.028968,0.006326,0.004754,-0.05881458979817211,-0.7464383638116581,0.43239062310230875,-0.5024031868034327
48,1.2051711082458496,0.6128,0.0413,0.4098,-9.607,-0.459,1.756,0.007342,0.007565,0.014255,-0.05255239470924725,-0.7346151111076906,0.43289223209159067,-0.5197914964072798
49,1.2295193672180176,0.619,0.0402,0.4212,-9.547,-0.348,1.744,0.00756,0.01048,0.014689,-0.05071628312363602,-0.7157591178171645,0.4385654921694411,-0.5410887662536468
50,1.2542970180511475,0.6133,0.0416,0.4117,-9.543,-0.312,1.798,0.000468,0.008771,0.012121,-0.05216453621359529,-0.6975826109207633,0.44281878387412854,-0.5608644103086141
51,1.2796783447265625,0.6188,0.0391,0.4255,-9.523,-0.261,1.803,-0.005223,0.008097,0.01054,-0.06272802677816863,-0.6811231604826853,0.4505119943977587,-0.5737380742240742
52,1.3040368556976318,0.6126,0.0413,0.4109,-9.504,-0.327,1.801,0.000553,0.006672,0.007758,-0.07466029534050295,-0.6693619539072321,0.4544402209131584,-0.5829789881098297
53,1.3277499675750732,0.6196,0.041,0.4215,-9.613,-0.294,1.818,0.00015,0.007333,0.007123,-0.08791725098489456,-0.6587034389834168,0.4588024894386358,-0.5898140487777396
54,1.3536159992218018,0.6133,0.04,0.4125,-9.58,-0.314,1.773,0.001161,0.009988,0.004856,-0.10299341440307067,-0.6502736960349131,0.46096747122466264,-0.595017199169428
55,1.3808302879333496,0.6188,0.0404,0.4258,-9.528,-0.273,1.79,0.003229,0.009886,0.004615,-0.11636369543310951,-0.6430997831001488,0.4621413837216183,-0.5994226395570658
56,1.4027831554412842,0.6131,0.0405,0.4085,-9.564,-0.278,1.736,-0.002049,0.00791,0.003837,-0.12970126041100732,-0.6390676826651647,0.46040717351796295,-0.6023249244336256
57,1.4299206733703613,0.6177,0.0404,0.4228,-9.535,-0.286,1.792,0.006015,0.006957,0.000857,-0.13956461393269656,-0.6375343220438572,0.4574671286822358,-0.6039830568228943
58,1.4616520404815674,0.6112,0.04,0.4122,-9.566,-0.346,1.751,0.001658,0.006315,-0.00023,-0.1515681885178778,-0.6350543897907467,0.45723897267778935,-0.6038754243231557
59,1.4832499027252197,0.6177,0.0388,0.426,-9.543,-0.315,1.771,0.004453,0.005642,-0.003583,-0.16146540122475647,-0.6355426289664192,0.45639426237192593,-0.6014306013562716
60,1.5028879642486572,0.6131,0.0429,0.4107,-9.566,-0.256,1.787,0.008902,0.003558,-0.008113,-0.17006849459426543,-0.6403996437657358,0.45254711336221143,-0.5967965428843309
61,1.5346221923828125,0.6193,0.0404,0.4231,-9.557,-0.334,1.802,3.3e-05,0.00672,-0.005572,-0.1771668419750995,-0.6469644358534639,0.4470143604661535,-0.5917998735910774
62,1.5551927089691162,0.6123,0.0405,0.4141,-9.565,-0.268,1.826,0.002121,0.007575,-0.009319,-0.1905633092307384,-0.6518231110261414,0.444615340648144,-0.584062886997254
63,1.5827665328979492,0.6174,0.0393,0.4263,-9.551,-0.298,1.772,0.003788,0.007661,-0.011408,-0.20003405044323772,-0.6595964577294362,0.4373807600739029,-0.5775958468784442
64,1.6044936180114746,0.612,0.0405,0.4101,-9.551,-0.34,1.752,0.005659,0.002299,-0.013448,-0.2099208978027686,-0.6674346074549926,0.4313225469567212,-0.5695832879604584
65,1.6299347877502441,0.6177,0.0429,0.4239,-9.545,-0.307,1.755,0.005304,0.001652,-0.012832,-0.21561940957583964,-0.6765938018663148,0.4229678376097797,-0.562874147423702
66,1.6616060733795166,0.612,0.0413,0.4152,-9.585,-0.367,1.737,0.005912,0.000569,-0.007536,-0.22028977763488788,-0.6825081050298643,0.4161909741330877,-0.5589634813547903
67,1.6824445724487305,0.6177,0.0407,0.4274,-9.571,-0.36,1.714,0.002572,0.00313,-0.007448,-0.2266789612984418,-0.6859192902866222,0.41032214415657775,-0.5565672589472943
68,1.706756591796875,0.6105,0.0437,0.412,-9.574,-0.337,1.769,0.006446,-0.001547,-0.005374,-0.23210286154695514,-0.6881196376635468,0.40592461984908196,-0.5548376599726107
69,1.7356929779052734,0.6175,0.0412,0.425,-9.533,-0.368,1.77,0.002442,-0.004375,-0.003914,-0.2334883702462878,-0.6909890489529263,0.4021512417321781,-0.5534362600698747
70,1.756950855255127,0.6118,0.0405,0.4149,-9.56,-0.372,1.791,0.000306,-0.003972,0.000304,-0.23701107822693662,-0.6904544386707209,0.4019353018097082,-0.5527625440247772
71,1.7817885875701904,0.6172,0.0402,0.4247,-9.585,-0.346,1.74,-0.017643,-0.00458,0.008216,-0.24391350225545613,-0.6843161666716071,0.4100551256925534,-0.551427584858265
72,1.8070836067199707,0.6113,0.0427,0.4112,-9.544,-0.363,1.715,-0.005497,-0.006335,0.010658,-0.24805815890904817,-0.6760794422851959,0.42012871685051073,-0.5521554118140429
73,1.8356945514678955,0.6172,0.0391,0.4233,-9.679,-0.628,1.718,-0.063288,0.002623,0.024065,-0.2628215405829641,-0.6599602866213642,0.4386479570301152,-0.5504227717687107
74,1.8593494892120361,0.6102,0.0416,0.4147,-9.538,-0.408,1.631,-0.094707,0.010163,0.035384,-0.30841467401332984,-0.6192830171113199,0.47975764277952837,-0.5396309273618245
75,1.895336627960205,0.6172,0.0358,0.426,-9.571,-0.46,1.645,-0.091964,0.011026,0.036515,-0.35139241339092353,-0.5782472047580891,0.5125394148935529,-0.5286368225741878
76,1.909811019897461,0.6107,0.0386,0.4141,-9.553,-0.183,1.759,-0.075212,0.007827,0.037634,-0.39593361316419645,-0.5339106539527299,0.5427448725551288,-0.5134237926680354
77,1.931792974472046,0.6172,0.0385,0.4255,-9.445,-0.27,1.766,-0.05076,0.004453,0.029043,-0.42344564252058975,-0.5042645268721879,0.5568893753526981,-0.5062462823448435
78,1.9614355564117432,0.6102,0.0359,0.4141,-9.493,-0.128,1.802,-0.036743,-0.000973,0.022472,-0.4474921611891639,-0.4793574132057159,0.5692719846589964,-0.49587966641251124
79,1.9839274883270264,0.6161,0.0339,0.4265,-9.49,-0.137,1.853,-0.007955,-0.004154,0.013083,-0.4562657956896863,-0.4684583288813976,0.5728302195939188,-0.4942002198555646
80,2.0075013637542725,0.6102,0.0372,0.4119,-9.574,-0.21,1.877,0.008594,-0.007158,0.001119,-0.45507322466714706,-0.46803960182576293,0.571569316292766,-0.4971476722126391
81,2.0323593616485596,0.6159,0.0366,0.4247,-9.555,-0.267,1.779,-0.002511,-0.008305,-0.000714,-0.4507645996584226,-0.47023576576718296,0.5717429191631903,-0.4987981903283998
82,2.0600786209106445,0.6096,0.0356,0.4149,-9.537,-0.242,1.787,0.024581,-0.010226,-0.007976,-0.44380165171885255,-0.4759570432011725,0.5696703542006798,-0.5019767668963251
83,2.0844309329986572,0.6161,0.0334,0.4249,-9.513,-0.31,1.779,0.017988,-0.009028,-0.007305,-0.4320319691539516,-0.48429058820902476,0.567084702493186,-0.507174470965693
84,2.1100544929504395,0.6091,0.0353,0.4114,-9.56,-0.331,1.798,0.030924,-0.010855,-0.008838,-0.41827313387185316,-0.49611905791868993,0.5603770677888803,-0.5146756335277852
85,2.132704734802246,0.6156,0.0361,0.4241,-9.562,-0.375,1.75,0.023082,-0.009197,-0.006116,-0.40378232084950655,-0.507895978419116,0.5534426700438952,-0.5222094631943767
86,2.158595323562622,0.6097,0.0383,0.4125,-9.555,-0.325,1.77,0.016986,-0.007662,-0.002768,-0.39438688096430696,-0.5156723608628273,0.5485381032255432,-0.5269221514371235
87,2.1843714714050293,0.6179,0.0361,0.4274,-9.547,-0.354,1.738,0.016328,-0.010315,-0.002011,-0.3841537590568337,-0.5216619393603614,0.5446690047491869,-0.5325696064279493
88,2.207887887954712,0.6105,0.0375,0.4084,-9.576,-0.365,1.754,0.017504,-0.004893,0.001273,-0.37672395229799305,-0.5262204667784335,0.5392230814508983,-0.5388966065388284
89,2.239809989929199,0.6172,0.0367,0.4217,-9.551,-0.238,1.8,0.034114,-0.005225,-0.005131,-0.365824646556821,-0.5340522466325119,0.5296167021316416,-0.5481484056909658
90,2.2636375427246094,0.6099,0.0378,0.4152,-9.544,-0.314,1.844,0.037723,-0.004399,-0.006856,-0.3481220703066802,-0.5486036751320627,0.5127408926688145,-0.5611967647645273
91,2.2838194370269775,0.6143,0.0366,0.4257,-9.52,-0.283,1.835,0.014235,-0.003221,-0.006613,-0.33819680374274236,-0.5574064794955784,0.5052118465878983,-0.5654042170180411
92,2.309506416320801,0.6078,0.038,0.4114,-9.526,-0.372,1.741,0.018798,-0.00456,-0.005447,-0.3289015161916454,-0.5657577382834695,0.49747190399564445,-0.5694415500770542
93,2.3352468013763428,0.613,0.0374,0.4236,-9.571,-0.377,1.751,-0.003308,-0.005916,-0.002898,-0.3249124823939392,-0.5700801938013323,0.49562588720585854,-0.5690302552162312
94,2.3730015754699707,0.6065,0.038,0.4122,-9.574,-0.348,1.746,-0.0039,-0.00807,0.002823,-0.3262496561627427,-0.5678044545541032,0.4997713884763224,-0.5669107712000703
95,2.3857953548431396,0.6112,0.0358,0.4265,-9.578,-0.389,1.769,-0.011285,-0.005458,0.008392,-0.3284486851745756,-0.5622855927135046,0.5047227718600065,-0.5667550590862576
96,2.4088103771209717,0.6039,0.0378,0.4113,-9.538,-0.338,1.798,-0.023252,-0.002279,0.015253,-0.33753808975578226,-0.5507574135951695,0.5125279142433288,-0.5657291281659094
97,2.4357991218566895,0.6112,0.0361,0.4233,-9.587,-0.217,1.724,-0.012683,-0.00569,0.013088,-0.3459179418226992,-0.5385635653704146,0.5201928763512451,-0.5654108550196689
98,2.4590206146240234,0.6044,0.0377,0.4149,-9.555,-0.216,1.762,0.003942,-0.008366,0.003,-0.34580548734920047,-0.5343387473117118,0.5217404859720055,-0.5680559244812329
99,2.48681378364563,0.6112,0.0363,0.4257,-9.517,-0.298,1.796,-0.000162,-0.005414,-0.006548,-0.34183698926415224,-0.5362880692421047,0.5215668731994585,-0.5687799014911968
100,2.5094411373138428,0.6044,0.0386,0.4119,-9.51,-0.223,1.801,0.010637,-0.008904,-0.01116,-0.3377185062911143,-0.5405504433468362,0.5236286912259993,-0.565300294030513
101,2.5367422103881836,0.6109,0.0369,0.4235,-9.54,-0.28,1.794,0.034206,-0.009814,-0.017896,-0.3219639916197929,-0.5543446271254118,0.5175282204578868,-0.5667501773331272
102,2.561230182647705,0.6052,0.0391,0.4146,-9.567,-0.295,1.793,0.048507,-0.010132,-0.019701,-0.29766465897169514,-0.5750426893223526,0.5040902790412211,-0.5715020969623161
103,2.5870137214660645,0.612,0.038,0.4257,-9.545,-0.424,1.93,0.029802,-0.007375,-0.011781,-0.2762912795295736,-0.5940595307271606,0.48896662021475334,-0.5759062832821831
104,2.6108129024505615,0.6052,0.0386,0.4122,-9.512,-0.316,1.845,0.006493,-0.001446,-0.006513,-0.27041464035574103,-0.6023613443598059,0.4841090266400021,-0.5741734785132386
105,2.6388602256774902,0.6104,0.0391,0.4238,-9.566,-0.343,1.754,0.007128,-0.002253,-0.003372,-0.26780057778905686,-0.6068885238990768,0.4813631964295437,-0.5729386033586668
106,2.663749933242798,0.6039,0.0396,0.4135,-9.541,-0.348,1.764,-0.005616,-0.000887,-0.00599,-0.2692036647537738,-0.6105718899171398,0.48007565096660165,-0.5694371988860083
107,2.6866581439971924,0.6133,0.0363,0.4257,-9.574,-0.255,1.803,-0.003054,-0.003416,-0.005443,-0.2727873005026711,-0.6130246338223584,0.4812638962302308,-0.5640682132479427
108,2.712921619415283,0.6073,0.0397,0.41,-9.582,-0.428,1.824,-0.009188,-0.00088,-0.000176,-0.2758100560432333,-0.6142134443224371,0.48294346712077374,-0.5598537892739168
109,2.7355449199676514,0.6141,0.0396,0.4225,-9.531,-0.408,1.895,-0.016332,0.001284,0.003434,-0.2840207290051234,-0.6108404916422314,0.4873113300134377,-0.55563817984927
110,2.7692461013793945,0.6081,0.0378,0.4127,-9.579,-0.333,1.772,-0.019084,0.00481,0.008097,-0.2957021245284076,-0.603172178862138,0.4930459651668358,-0.5528555439070775
111,2.7941319942474365,0.6148,0.0377,0.4244,-9.569,-0.324,1.809,-0.010739,0.001335,0.005972,-0.30516485197782317,-0.5958791519190041,0.4963066924043827,-0.5527043662757363
112,2.8153038024902344,0.6099,0.0375,0.4109,-9.563,-0.284,1.818,-0.008893,0.001884,0.008936,-0.31171382683165694,-0.5891535135256682,0.498796341731115,-0.5540170007662046
113,2.8375258445739746,0.6154,0.0383,0.4241,-9.498,-0.316,1.773,-0.007411,0.004485,0.010871,-0.3177960611195405,-0.5822948541311471,0.5000498418801106,-0.5566763171044443
114,2.8636648654937744,0.6084,0.0378,0.4117,-9.574,-0.307,1.789,-0.006241,0.002929,0.007252,-0.32484506842376615,-0.5763827972849953,0.500918083987017,-0.5579781587566477
115,2.8859670162200928,0.6153,0.0342,0.4254,-9.592,-0.285,1.77,-0.000231,0.002972,0.005736,-0.3303565042932501,-0.572506441348192,0.4998849193248319,-0.5596570575965064
116,2.9169259071350098,0.6102,0.0375,0.4098,-9.539,-0.295,1.824,0.004371,0.004533,0.002177,-0.33355733058634984,-0.5721935947842315,0.49552421588438933,-0.5619517317102674
117,2.9393389225006104,0.6154,0.038,0.4225,-9.512,-0.242,1.775,0.01152,0.005287,0.000314,-0.33422709893360936,-0.574239980220288,0.4885446849951634,-0.5655658955577176
118,2.9625227451324463,0.6083,0.0372,0.4143,-9.514,-0.322,1.828,0.003679,0.001906,0.003859,-0.3351701741565436,-0.576284416252092,0.4818016644385447,-0.5687041252576825
119,2.9872937202453613,0.6148,0.0371,0.429,-9.54,-0.29,1.791,-0.002484,0.000287,-0.000795,-0.3391235151580839,-0.5751949744640519,0.48153283286464843,-0.5676901564158656
120,3.015324592590332,0.6089,0.0378,0.4082,-9.549,-0.324,1.753,-0.009272,-0.000436,0.000242,-0.3438585941242025,-0.574860361226117,0.48055021654306374,-0.5660108848055132
121,3.0384342670440674,0.6169,0.0369,0.423,-9.561,-0.319,1.823,-0.01343,7.8e-05,-0.005454,-0.34918090245186884,-0.5739596299797373,0.48278633518755076,-0.5617476257827845
122,3.0640451908111572,0.6099,0.0386,0.413,-9.539,-0.336,1.77,-0.01798,0.00049,0.000474,-0.358519584156923,-0.570392130947594,0.48886320480640055,-0.5541924681150266
123,3.088406562805176,0.6164,0.035,0.4268,-9.577,-0.299,1.829,-0.026115,-0.002428,0.002104,-0.36959809976466473,-0.5642791971056001,0.4974544877118937,-0.5454587656454937
124,3.1158323287963867,0.6094,0.0378,0.4109,-9.593,-0.27,1.76,-0.029177,0.000655,-0.000294,-0.3844310367052468,-0.5554035497594686,0.5071047939320448,-0.5353357851885575
125,3.1380624771118164,0.6164,0.0364,0.4228,-9.586,-0.322,1.797,-0.02869,0.000907,0.001966,-0.39870749892156504,-0.5473129558777969,0.5153147786139621,-0.5252918594210862
126,3.1629207134246826,0.6094,0.0359,0.4119,-9.539,-0.256,1.748,-0.024756,0.002278,-0.002713,-0.41310010051395313,-0.5390349010607307,0.5240405423525889,-0.5139758674924483
127,3.1899304389953613,0.6159,0.0353,0.4265,-9.507,-0.298,1.759,0.003668,0.000373,-0.004072,-0.4199902816364127,-0.5368246746849421,0.525282589278492,-0.5094169543519885
128,3.2134759426116943,0.6097,0.0356,0.41,-9.545,-0.357,1.78,0.008669,0.002541,-0.005752,-0.42072989605422695,-0.5405370357502167,0.520073586056767,-0.5102249823701528
129,3.2388110160827637,0.6148,0.0361,0.4227,-9.494,-0.3,1.801,0.026794,-0.000103,-0.011905,-0.4158061170240983,-0.5487964607190636,0.5103625692704168,-0.5152259364931757
130,3.268226385116577,0.6081,0.0367,0.4124,-9.533,-0.293,1.797,0.015682,-0.001251,-0.011455,-0.4091076996384631,-0.558880993011025,0.49947525025753636,-0.5203915834520259
131,3.291123867034912,0.6127,0.0371,0.4276,-9.523,-0.318,1.896,0.014027,-0.001236,-0.014248,-0.404497576089114,-0.5675100196801759,0.49161393336343423,-0.5221396642887518
132,3.319622278213501,0.6071,0.0378,0.4103,-9.584,-0.355,1.865,-0.006553,0.001832,-0.010038,-0.4072908862270091,-0.5708863029349461,0.48733803419939514,-0.5202928055819682
133,3.346357583999634,0.6125,0.0369,0.4241,-9.606,-0.311,1.808,0.003516,0.00269,-0.010728,-0.4114913516406556,-0.5726107087819148,0.4833422251965862,-0.5188180192083076
134,3.365502119064331,0.6068,0.0372,0.4141,-9.559,-0.343,1.752,0.006611,0.00496,-0.009553,-0.4140729820314172,-0.5746950416747334,0.47613793020556056,-0.5211159621865855
135,3.3904905319213867,0.6125,0.0358,0.4287,-9.549,-0.393,1.822,0.00501,0.006439,-0.002543,-0.4160325705489329,-0.5752999787548039,0.4690034618480343,-0.525340449101084
136,3.418848752975464,0.6058,0.0389,0.4103,-9.53,-0.38,1.802,-0.003475,0.007773,-0.001991,-0.4214831448493951,-0.5718293633717721,0.46499020753065357,-0.5283438697423273
137,3.4393727779388428,0.6135,0.0382,0.4252,-9.579,-0.31,1.803,-0.004815,0.00745,0.001504,-0.42766827272404345,-0.5665742561887007,0.46239873447352947,-0.5313011115052672
138,3.468017101287842,0.6068,0.038,0.4127,-9.581,-0.311,1.803,-0.003701,0.007278,0.002255,-0.43479206703798906,-0.5602544452333986,0.46045222010519754,-0.533905017804894
139,3.4910547733306885,0.6122,0.036,0.4279,-9.514,-0.344,1.791,-0.001615,0.007155,0.000986,-0.43945669921794733,-0.5559434467308415,0.45757759221155686,-0.5370544112614408
140,3.5158352851867676,0.6057,0.038,0.413,-9.542,-0.325,1.76,0.007735,0.007294,-0.002076,-0.44129937429739013,-0.5537764412021711,0.45145939438902283,-0.5429281081617409
141,3.5419986248016357,0.612,0.0372,0.4227,-9.552,-0.352,1.772,0.004517,0.006224,-0.000257,-0.44307575625389517,-0.5515443207494998,0.4464325343425694,-0.547887514686621
142,3.5694563388824463,0.606,0.0378,0.4141,-9.54,-0.357,1.767,0.002354,0.008636,0.000672,-0.4465143212964031,-0.5474851434516257,0.44133591068364203,-0.5532699092829878
143,3.5916526317596436,0.6138,0.035,0.4292,-9.55,-0.272,1.804,0.012626,0.008746,-0.002551,-0.44780259408263196,-0.5447581613605251,0.43389430769343684,-0.5607558400188077
144,3.614696502685547,0.6078,0.0386,0.4103,-9.516,-0.28,1.773,0.024417,0.005603,-0.01054,-0.4428811871605035,-0.5463171634527604,0.42256213194043146,-0.5716948973239053
145,3.6443426609039307,0.613,0.0371,0.4263,-9.55,-0.263,1.772,0.033033,0.002785,-0.015338,-0.43136074942899744,-0.5523629788977303,0.4091833647098334,-0.5842876153402693
146,3.668609142303467,0.6057,0.0388,0.4149,-9.565,-0.329,1.833,0.028109,0.004663,-0.016864,-0.418226453837915,-0.5580652298158114,0.3952547177929765,-0.597849095209805
147,3.6927649974823,0.6119,0.0374,0.4276,-9.568,-0.403,1.788,0.01022,0.006467,-0.009397,-0.4105231768399906,-0.559167617187756,0.38772307093447217,-0.6070198657629843
148,3.7171096801757812,0.6052,0.0402,0.413,-9.569,-0.38,1.803,0.001335,0.003237,-0.003686,-0.40946788104061904,-0.5556733917510034,0.3862681694818282,-0.6118496852505516
149,3.741833448410034,0.6099,0.0393,0.4265,-9.563,-0.374,1.795,-0.015865,0.004827,0.001855,-0.41342383874851557,-0.5490967387546581,0.38850005061415416,-0.6137110164533792
150,3.7664787769317627,0.6039,0.0402,0.4143,-9.558,-0.327,1.756,-0.022823,0.005197,-0.000135,-0.4234870399601317,-0.5374797428867135,0.3966366638440149,-0.6119261473960139
151,3.790675640106201,0.6098,0.0358,0.4292,-9.586,-0.34,1.729,-0.017585,0.004124,-0.002107,-0.43231497840342586,-0.5268020749997058,0.4052543383090431,-0.6093867856343371
152,3.8195960521698,0.6026,0.0394,0.413,-9.564,-0.32,1.764,-0.014527,0.005314,0.000846,-0.4383416442453192,-0.5177955046958088,0.4107821847746731,-0.609099675676214
153,3.8419108390808105,0.6088,0.0385,0.4268,-9.515,-0.374,1.761,-0.012899,0.004847,0.000991,-0.44427897327480165,-0.5086399362112759,0.4156749949749723,-0.6091928329760896
154,3.867445468902588,0.601,0.0377,0.4156,-9.531,-0.291,1.747,-0.003104,0.005463,-0.000844,-0.44808110957032876,-0.5002367953004202,0.4192050394362994,-0.6109448443067503
155,3.8939647674560547,0.6075,0.0371,0.4302,-9.561,-0.341,1.685,0.015138,0.005479,-0.008028,-0.4436975858669559,-0.4974400046976898,0.4175866667736722,-0.6175008257120405
156,3.920199394226074,0.6,0.0388,0.4127,-9.546,-0.314,1.772,0.042822,0.003438,-0.014262,-0.4272328221783239,-0.5035060736743819,0.40788414356155006,-0.6305428414133439
157,3.942305088043213,0.6067,0.0401,0.427,-9.516,-0.393,1.855,0.018238,0.002373,-0.008809,-0.4099388529733803,-0.5101943593561873,0.39865137567736697,-0.6424398284466349
158,3.9709925651550293,0.5987,0.0412,0.4148,-9.546,-0.328,1.817,-0.0063,0.006906,-0.003024,-0.40573938322627534,-0.5062587480350006,0.4000734119945751,-0.6473166906176716
159,3.995666980743408,0.6057,0.0366,0.4289,-9.585,-0.3,1.736,-0.000432,0.009914,-0.002719,-0.40562648588030337,-0.49751299935388604,0.40460412211078034,-0.651339752968649
160,4.0189008712768555,0.5982,0.0404,0.4151,-9.563,-0.325,1.744,0.000605,0.006411,-0.004614,-0.40141106215428324,-0.4923997359463352,0.40760501833108465,-0.6559495470319847
161,4.0434064865112305,0.6046,0.0395,0.4281,-9.562,-0.387,1.763,-0.004851,0.00559,-0.006837,-0.39677335600325536,-0.4879015588753517,0.413432539839683,-0.6584804536314078
162,4.0680882930755615,0.5963,0.0401,0.4186,-9.564,-0.4,1.722,-0.011505,0.005513,-0.006052,-0.39473553553071405,-0.481274474276191,0.4222910011214439,-0.6589605813486152
163,4.093380689620972,0.6033,0.0382,0.4332,-9.549,-0.381,1.801,-0.020055,0.007886,0.0029,-0.3986882796017863,-0.47077294114783735,0.43288926583071197,-0.657287895156856
164,4.118409156799316,0.5963,0.0393,0.4162,-9.57,-0.344,1.787,-0.02385,0.009645,0.000368,-0.4043609048858334,-0.45714872537015033,0.44520228635556364,-0.6552115885087317
165,4.146388053894043,0.6023,0.0403,0.4308,-9.556,-0.289,1.748,-0.014502,0.008692,-0.000369,-0.4083836326042639,-0.44490250748323645,0.45612460136752087,-0.6536320949000244
166,4.1784961223602295,0.5955,0.0396,0.4191,-9.535,-0.343,1.772,-0.000194,0.005074,-0.005023,-0.40446947330186267,-0.4393560012381045,0.46354253815672175,-0.6545983995261527
167,4.198246955871582,0.601,0.0376,0.4329,-9.554,-0.362,1.732,0.005722,0.004158,-0.008901,-0.39484617867288574,-0.4386634438069366,0.47027344541388,-0.6561354774689572
168,4.2190093994140625,0.5943,0.0409,0.417,-9.58,-0.32,1.756,0.016136,0.001581,-0.015383,-0.38014162942890567,-0.4428788824562996,0.4745187358305125,-0.6589253420496195
169,4.243853807449341,0.5986,0.0395,0.4315,-9.549,-0.353,1.747,0.02886,0.003876,-0.015379,-0.3598352114044514,-0.4524072949560973,0.4737979758034819,-0.6643506139295303
170,4.269198656082153,0.5927,0.0398,0.4191,-9.512,-0.315,1.774,0.032592,0.002109,-0.011583,-0.33747658795140917,-0.4650281271235783,0.4699017327565242,-0.670112494377644
171,4.295500040054321,0.5997,0.0387,0.4334,-9.533,-0.299,1.669,0.027997,0.003569,-0.013228,-0.3157736910053965,-0.4782246115689985,0.46673845294824284,-0.6736047902872945
172,4.320091247558594,0.5911,0.0409,0.4183,-9.62,-0.382,1.727,0.023061,0.004435,-0.016864,-0.29438678380154265,-0.4911464246323141,0.46569272229008957,-0.6747161621748244
173,4.358609437942505,0.5968,0.0411,0.4313,-9.546,-0.412,1.72,0.008958,0.003923,-0.013489,-0.2776962505411036,-0.5023171246462023,0.4691052675709575,-0.6711948648937688
174,4.369385719299316,0.5903,0.0415,0.4194,-9.559,-0.408,1.708,0.003856,0.001839,-0.008022,-0.2675573666172595,-0.5092467766630892,0.4735442441751404,-0.6669607371020322
175,4.395330905914307,0.5963,0.0395,0.4356,-9.556,-0.412,1.701,-0.003862,0.002494,-0.004467,-0.26236460138430057,-0.5129063571454793,0.47838894764866424,-0.6627487453838102
176,4.422693967819214,0.5901,0.0426,0.4172,-9.557,-0.349,1.711,-0.011679,0.005747,-0.002612,-0.260237477795086,-0.5120939947617456,0.48910557423130924,-0.6563626535198896
177,4.4498701095581055,0.5963,0.0428,0.4305,-9.54,-0.38,1.722,-0.004875,0.00249,-0.00387,-0.25946191937790475,-0.5103448418856129,0.497369856552963,-0.6518058610859274
178,4.470931529998779,0.5885,0.0412,0.421,-9.55,-0.411,1.813,0.003376,-0.00096,-0.000757,-0.2558282609035982,-0.5120898425439678,0.4983750267452016,-0.6511053883996463
179,4.494652509689331,0.5947,0.0395,0.4361,-9.54,-0.409,1.793,-0.008382,0.002193,0.00246,-0.25503051153264716,-0.5099508023118686,0.5026994972189995,-0.6497713697175667
180,4.5222742557525635,0.5869,0.0433,0.4191,-9.541,-0.403,1.739,-0.00715,0.00453,0.006587,-0.25622318378817743,-0.5030964690082916,0.5070798966459042,-0.6512400489669059
181,4.545895338058472,0.5934,0.0419,0.4334,-9.574,-0.355,1.731,-0.012633,0.006751,0.004281,-0.2572454103774249,-0.4945263788679166,0.515172364919468,-0.6510498397717478
182,4.57022762298584,0.5856,0.0395,0.4209,-9.551,-0.342,1.668,-0.010996,0.00803,0.001547,-0.25646666530461976,-0.4871747288962955,0.52474885361199,-0.6492490075042482
183,4.602089881896973,0.5918,0.0413,0.4369,-9.545,-0.373,1.723,0.002925,0.008472,-0.000666,-0.2509216087641738,-0.48429058975139805,0.5305490503469303,-0.648859519549041
184,4.622692346572876,0.5846,0.0409,0.4212,-9.515,-0.387,1.788,-0.004272,0.006928,-0.002662,-0.24347999896026282,-0.4852320589979523,0.5361163671730196,-0.6464105350906049
185,4.647076606750488,0.5908,0.0403,0.4331,-9.563,-0.355,1.769,-0.006023,0.007569,-0.00376,-0.23722631588695872,-0.4863918157022513,0.5454385921265263,-0.6400339201070526
186,4.681541442871094,0.5835,0.0414,0.4201,-9.598,-0.373,1.746,-0.007427,0.008688,-0.004391,-0.23033112862111263,-0.49002213548488915,0.5558892768962265,-0.6307241788252166
187,4.6959943771362305,0.5902,0.0408,0.4401,-9.548,-0.387,1.714,-0.002914,0.007022,-0.004226,-0.2239275344427345,-0.49373549634924685,0.5647584451225206,-0.6221974104944136
188,4.72314190864563,0.5817,0.0403,0.4233,-9.537,-0.408,1.766,-0.011296,0.0069,-0.002137,-0.21900876442359396,-0.49666747493007124,0.5743004470273794,-0.6128095764561697
189,4.755392789840698,0.5879,0.0416,0.4339,-9.57,-0.403,1.744,-0.015903,0.006655,0.001668,-0.2174686310235277,-0.495774952965881,0.586318369206612,-0.6026154333099429
190,4.771480083465576,0.582,0.0417,0.4241,-9.582,-0.399,1.75,-0.011751,0.005173,0.001704,-0.21722660437506497,-0.4936242882209007,0.597080464582395,-0.5938371689648262
191,4.801165580749512,0.5879,0.0375,0.4379,-9.568,-0.399,1.719,-0.009503,0.003796,0.004213,-0.2164570232973124,-0.4892476716178974,0.6045412914003048,-0.5901803960432646
192,4.820972919464111,0.5814,0.0422,0.422,-9.552,-0.41,1.73,-0.010625,0.003923,0.005744,-0.21670141025991654,-0.48159895117681484,0.6123643317491148,-0.5883135849342724
193,4.848467111587524,0.5874,0.0411,0.4361,-9.565,-0.347,1.701,-0.00646,0.004989,0.002328,-0.21485527656101977,-0.475127876484647,0.6197564302570621,-0.586508890193577
194,4.8815155029296875,0.582,0.0414,0.422,-9.577,-0.302,1.734,0.002363,0.004412,-0.000622,-0.21185279215652736,-0.4722877487794671,0.6239657407310853,-0.5854309790250377
195,4.899212598800659,0.5892,0.0389,0.4371,-9.591,-0.337,1.719,0.001049,0.005213,-0.00404,-0.2057997299072301,-0.47722171874182284,0.6267039386360598,-0.5806445346589094
196,4.924341440200806,0.5809,0.0406,0.4206,-9.526,-0.391,1.696,0.002183,0.005292,-0.010044,-0.19740635413869007,-0.4893425033026496,0.6318894463805993,-0.5677062386128817
197,4.948218822479248,0.5871,0.0413,0.4358,-9.55,-0.385,1.736,0.008566,0.004514,-0.011875,-0.18818476986026697,-0.5054671223054192,0.6352346510749088,-0.5527806244204436
198,4.97409462928772,0.5827,0.0403,0.4268,-9.539,-0.364,1.711,0.010763,0.004448,-0.014032,-0.17881634675019412,-0.528391738797661,0.6343414101380918,-0.5351988975038309
199,4.998836278915405,0.5908,0.0402,0.4388,-9.559,-0.344,1.722,0.019553,0.003909,-0.013744,-0.1701241817048133,-0.5521025780097202,0.6292541607821949,-0.5198843210682396
200,5.0256507396698,0.5841,0.0425,0.4209,-9.578,-0.487,1.617,0.025427,0.005631,-0.011126,-0.15982794180162405,-0.5777793013841752,0.6187746808489709,-0.507684943889146
201,5.053888320922852,0.5866,0.0419,0.432,-9.561,-0.458,1.728,0.006693,0.00401,-0.008682,-0.154813398357819,-0.5984990833125705,0.612368164415778,-0.4927848315167243
202,5.075760126113892,0.5783,0.0419,0.4222,-9.598,-0.454,1.722,-0.005008,0.005966,0.000247,-0.15200156164391387,-0.6058841917783692,0.6135457354249247,-0.48307504795090805
203,5.100189208984375,0.5863,0.0399,0.4403,-9.612,-0.366,1.68,-1.8e-05,0.006364,0.003174,-0.14928333479045788,-0.604886709591106,0.6188018742435164,-0.4784462299429232
204,5.12341570854187,0.5796,0.0417,0.4228,-9.531,-0.362,1.72,-0.004296,0.005005,0.001747,-0.1465064452712339,-0.6072050703656375,0.6224339553561339,-0.4716077132914244
205,5.147938251495361,0.5861,0.0416,0.436,-9.563,-0.468,1.689,-0.004474,0.002232,0.000484,-0.14603668987265273,-0.6105963087122633,0.6244392209984848,-0.46467310259665606
206,5.174214839935303,0.5796,0.0419,0.4249,-9.573,-0.372,1.686,-0.011382,0.00387,0.003264,-0.14709086685896752,-0.6097873140633469,0.6308638948747392,-0.45665572879091426
207,5.198285102844238,0.5871,0.0389,0.4393,-9.577,-0.399,1.717,-0.008492,0.003753,0.002252,-0.1466534288264392,-0.6114701259035338,0.6349559392803523,-0.44880732181368277
208,5.223989248275757,0.5796,0.0422,0.4247,-9.588,-0.358,1.717,-0.013259,0.002665,-0.000925,-0.15029486026123984,-0.6129537405043298,0.6404771418774349,-0.4375936445074552
209,5.2545084953308105,0.5848,0.0411,0.4358,-9.583,-0.404,1.666,-0.001577,-0.000296,-0.003451,-0.15294835207122487,-0.6172183065763382,0.6417532149329023,-0.428720392271021
210,5.274801969528198,0.5801,0.0389,0.4255,-9.544,-0.423,1.742,-0.002597,0.002383,0.000846,-0.15191534700910606,-0.6224868732044991,0.641512089571076,-0.42177489134055923
211,5.301339864730835,0.5868,0.04,0.4393,-9.576,-0.396,1.696,-0.011823,0.003406,-0.002071,-0.15471567308274278,-0.6260230306895012,0.6445402172266547,-0.4107628682418879
212,5.326570510864258,0.5799,0.0428,0.4233,-9.578,-0.364,1.665,-0.00435,0.004929,-0.006757,-0.15951058978797622,-0.6356398363973393,0.6442955395753445,-0.3942101315460724
213,5.355041265487671,0.5842,0.0416,0.4379,-9.591,-0.403,1.681,-0.008689,0.000242,-0.007045,-0.16768866225666818,-0.6485142275231247,0.6402469536127092,-0.37602346687447485
214,5.376995801925659,0.577,0.0406,0.4241,-9.548,-0.467,1.724,-0.003794,0.000434,-0.004095,-0.17390706616909196,-0.6589125457967376,0.6357377171613964,-0.36253019778569795
215,5.402486324310303,0.584,0.0386,0.4411,-9.533,-0.422,1.684,0.000862,0.00037,-0.002167,-0.1794527256702958,-0.6678496767631329,0.6310386548271505,-0.35151635041747475
216,5.4273316860198975,0.5775,0.0422,0.4222,-9.568,-0.404,1.71,0.003034,-0.001187,-0.001654,-0.1814120234751881,-0.6739669278841571,0.627372553953053,-0.34534321537197255
217,5.451066255569458,0.584,0.0432,0.4369,-9.59,-0.386,1.701,0.001888,-0.001879,-0.002824,-0.1833759059063744,-0.6803525615918117,0.622175494646672,-0.3411617254758302
218,5.4761879444122314,0.577,0.0416,0.4255,-9.533,-0.41,1.696,0.006637,-0.00297,-0.004091,-0.18705326726891736,-0.6891106610388812,0.6147468573018526,-0.3349983186287285
219,5.5027947425842285,0.5832,0.0413,0.4411,-9.539,-0.409,1.711,0.004894,-0.000666,-0.006039,-0.19190456562623395,-0.6987177022295312,0.606135790688365,-0.3279719706460924
220,5.525462627410889,0.576,0.0438,0.4244,-9.563,-0.4,1.719,0.004235,-0.002064,-0.003834,-0.19639969135657775,-0.7064441166413912,0.5985570093805855,-0.3226350536119335
221,5.554215431213379,0.5822,0.0421,0.4363,-9.598,-0.395,1.72,0.006192,-0.002057,-0.007438,-0.20188603872958938,-0.7152140189260355,0.5891169403168083,-0.3172572538642824
222,5.579806327819824,0.5752,0.0425,0.4252,-9.577,-0.374,1.68,-0.001818,-0.004303,-0.006828,-0.21101455107157052,-0.7246143172315018,0.5782583176306075,-0.3098778284908543
223,5.603619575500488,0.5811,0.0418,0.4411,-9.536,-0.416,1.682,-0.001687,-0.004372,-0.011004,-0.224051260703978,-0.7339847193270217,0.5658920655044736,-0.30138618842022596
224,5.629000425338745,0.5752,0.0422,0.426,-9.534,-0.452,1.75,-0.001887,-0.002044,-0.010339,-0.23780190967346682,-0.7442381526318721,0.5514392568387124,-0.29236034262519095
225,5.651124715805054,0.5816,0.0426,0.4411,-9.605,-0.27,1.698,-0.005997,-0.003911,-0.014653,-0.26389688756190954,-0.7528752523043201,0.5353142512666874,-0.27744538128004437
226,5.6748504638671875,0.5746,0.0435,0.4252,-9.559,-0.416,1.728,-0.001241,-0.004483,-0.024341,-0.29783182854361057,-0.7688113205456893,0.5003175027041096,-0.2644007409125131
227,5.700541257858276,0.5821,0.0415,0.4419,-9.572,-0.445,1.739,0.002966,-0.004561,-0.02299,-0.33701744372287373,-0.7805116727582615,0.45986481301034443,-0.25640812208188957
228,5.7276623249053955,0.5765,0.0441,0.4244,-9.543,-0.508,1.697,-0.009552,-0.003825,-0.019344,-0.37615383262470703,-0.7848648503049763,0.4223907109165492,-0.25314333546215145
229,5.7574286460876465,0.5798,0.0429,0.4374,-9.571,-0.465,1.658,-0.005364,-0.004766,-0.014333,-0.4093193354119392,-0.782825708874969,0.394348614523435,-0.25324052086065924
230,5.779815912246704,0.5739,0.0452,0.4263,-9.578,-0.435,1.709,-0.0097,-0.00815,-0.015682,-0.43982734493462444,-0.7770927957613603,0.3689215495271529,-0.2580224480893788
231,5.801462173461914,0.5803,0.0415,0.4414,-9.555,-0.47,1.737,0.003651,-0.009044,-0.015555,-0.4640930142776873,-0.7700067021117212,0.3465765896920018,-0.26756685198122615
232,5.826860666275024,0.5739,0.0452,0.4244,-9.54,-0.491,1.718,-0.003324,-0.007823,-0.012634,-0.4871544188285835,-0.7612687050397668,0.3250934859532987,-0.27832491144989835
233,5.861422538757324,0.5809,0.044,0.4382,-9.576,-0.448,1.664,-0.002201,-0.008266,-0.010527,-0.5058593990613592,-0.7512630571618396,0.3092972352829031,-0.28990568737346273
234,5.883298873901367,0.5736,0.0441,0.4271,-9.585,-0.468,1.71,-0.003055,-0.009022,-0.009014,-0.5237462584060009,-0.7400992592773566,0.2955511840863519,-0.30098578173724055
235,5.902500867843628,0.5798,0.0421,0.4433,-9.539,-0.527,1.725,-0.000246,-0.009061,-0.010251,-0.5371900785604627,-0.7295831685883674,0.28445044459590885,-0.3134057500716149
236,5.929773330688477,0.5734,0.0449,0.423,-9.505,-0.493,1.724,-0.00486,-0.01086,-0.008459,-0.5480893903330089,-0.7193422318921977,0.2779547810491151,-0.3238609474954966
237,5.962529897689819,0.5793,0.0451,0.4374,-9.56,-0.498,1.702,-0.004678,-0.009861,-0.004747,-0.5548932854427165,-0.711466816591676,0.27694799223537536,-0.3304666704166832
238,5.980714321136475,0.5723,0.0449,0.4265,-9.595,-0.511,1.708,-0.000375,-0.010016,-0.002768,-0.5568697160530597,-0.7070163465501965,0.2770991797325291,-0.3365115891694619
239,6.002485752105713,0.5798,0.0432,0.4411,-9.558,-0.446,1.765,-0.004522,-0.0104,0.000518,-0.5566715983782576,-0.7040970346311662,0.2809681665206731,-0.3397366432762374
240,6.0275092124938965,0.5723,0.0438,0.4211,-9.53,-0.507,1.708,-0.003789,-0.009869,-0.001461,-0.5573874294462534,-0.7012833985512791,0.2834783238704533,-0.34228772736875057
241,6.0531840324401855,0.5801,0.0451,0.4379,-9.551,-0.46,1.732,-0.001174,-0.008159,-0.000804,-0.5573678575117731,-0.6990070511199153,0.2867126928119977,-0.3442761183670297
242,6.077266216278076,0.5731,0.0446,0.4238,-9.575,-0.492,1.76,0.001851,-0.006885,-0.001178,-0.5562205550653947,-0.6982211689004073,0.2871307081986524,-0.34736414586343445
243,6.107705593109131,0.5819,0.0421,0.4398,-9.59,-0.475,1.749,-0.005416,-0.007941,0.002944,-0.5543584665053753,-0.6978774387642142,0.2919133297518848,-0.3470452117388696
244,6.131953239440918,0.5786,0.0452,0.4217,-9.55,-0.452,1.782,-0.005729,-0.007957,0.000101,-0.5539054366427588,-0.6963630111965684,0.2973667632224096,-0.34617962393166657
245,6.155580997467041,0.5853,0.0454,0.4345,-9.531,-0.41,1.718,0.007094,-0.006286,0.000354,-0.5507302564994526,-0.696733030115259,0.3004535306277926,-0.34783177723685743
246,6.1800923347473145,0.5773,0.0441,0.4233,-9.573,-0.497,1.725,0.001025,-0.007409,-0.000848,-0.5484749689539579,-0.69620529715166,0.3011695898073373,-0.3518099925019241
247,6.209532737731934,0.5832,0.0418,0.4379,-9.571,-0.445,1.775,0.001575,-0.008459,-0.002813,-0.5488460968154241,-0.6945058763833152,0.3014633352257165,-0.35432951781372185
248,6.23001503944397,0.576,0.046,0.4201,-9.578,-0.48,1.798,0.000401,-0.008408,-0.001895,-0.5463852787981998,-0.6940933859110201,0.30234890217567795,-0.3581656601355742
249,6.258741855621338,0.5837,0.0429,0.4366,-9.55,-0.476,1.748,-0.006665,-0.005982,-0.002378,-0.5504566583716881,-0.6897536221207093,0.3035266274323779,-0.3593174007269377
250,6.287730693817139,0.5778,0.0438,0.4217,-9.52,-0.459,1.737,-0.00333,-0.004353,0.001414,-0.5529347979593097,-0.6871652061732454,0.3054991977726344,-0.3587998450262418
251,6.303557395935059,0.5853,0.0427,0.4401,-9.561,-0.464,1.739,0.005776,-0.006185,-0.001517,-0.5530538392994385,-0.6855939773506682,0.3060295724240245,-0.3611623594155559
252,6.3280088901519775,0.5786,0.0441,0.4214,-9.54,-0.5,1.76,0.00208,-0.007425,-0.001173,-0.5524247302691792,-0.6846364430339837,0.3052059279594322,-0.36462199576440957
253,6.356977462768555,0.5835,0.0446,0.4366,-9.539,-0.484,1.773,-0.001834,-0.00927,0.000406,-0.552575871541682,-0.6823840080665565,0.30699516543231126,-0.367104808094582
254,6.38968300819397,0.5778,0.0452,0.4214,-9.532,-0.494,1.75,-0.002819,-0.007462,-0.001396,-0.5542506169797922,-0.6789036792386338,0.30725157364786887,-0.3707998360095027
255,6.40413236618042,0.585,0.0429,0.4387,-9.584,-0.462,1.742,0.003052,-0.007253,-0.004839,-0.5552848773438206,-0.6761964812633476,0.30643958028120266,-0.37484904609376507
256,6.430072784423828,0.5773,0.0433,0.4225,-9.553,-0.454,1.794,-0.001659,-0.006929,-0.004758,-0.5580599528123728,-0.6722592355790382,0.3042812694288303,-0.37953855972815054
257,6.453809499740601,0.5843,0.044,0.4344,-9.544,-0.466,1.759,0.000765,-0.005518,-0.006548,-0.5640357574017912,-0.6656427372447068,0.3008980588722575,-0.385024374413451
258,6.4785847663879395,0.5775,0.0438,0.4233,-9.509,-0.448,1.777,0.00292,-0.006243,-0.008943,-0.5697145991360433,-0.6578102479055435,0.2943705129628435,-0.3950404465111101
259,6.510549783706665,0.5863,0.0432,0.4396,-9.543,-0.511,1.745,0.005624,-0.008198,-0.00863,-0.5720156736735699,-0.650994252428227,0.289041789821889,-0.40676700470139554
260,6.533239126205444,0.5773,0.0439,0.4198,-9.55,-0.509,1.764,0.003837,-0.00705,-0.007189,-0.5752153537139852,-0.6433803359721525,0.28412916485220924,-0.41768368152998414
261,6.557163953781128,0.5812,0.0451,0.4323,-9.55,-0.498,1.786,0.010135,-0.008188,-0.007944,-0.5744373740632583,-0.6392037699130108,0.28061918415558695,-0.4274261541976061
262,6.580886125564575,0.5747,0.0449,0.4233,-9.529,-0.438,1.809,0.004818,-0.006701,-0.004052,-0.5729993296740037,-0.6366330812221902,0.2780319708640254,-0.4348198607057276
263,6.613724708557129,0.5819,0.0443,0.4393,-9.54,-0.492,1.758,-0.005319,-0.004645,-0.007083,-0.5752398975920318,-0.6306812789220383,0.2758082813025901,-0.44189362588804354
264,6.629755735397339,0.5744,0.0468,0.4217,-9.571,-0.485,1.805,-0.013889,-0.004529,-0.00817,-0.5845199524024404,-0.6160904185622682,0.2756343943893047,-0.4503273276505204
265,6.662925481796265,0.5822,0.0451,0.4374,-9.574,-0.475,1.772,-0.013349,-0.003041,-0.009976,-0.5945156797637787,-0.5997004691583347,0.27553427646712914,-0.4593379107999044
266,6.681504011154175,0.5757,0.0446,0.4225,-9.535,-0.442,1.785,-0.011772,-0.002499,-0.016163,-0.604196849892866,-0.5796468117046267,0.2764312394425116,-0.47174305519050863
267,6.707510948181152,0.5824,0.0437,0.4379,-9.53,-0.482,1.766,-0.003074,-0.000498,-0.018029,-0.6100724283200709,-0.5597112228601816,0.27519765036467425,-0.48867292992529743
268,6.72990870475769,0.5747,0.0466,0.4204,-9.544,-0.543,1.77,0.003159,0.001924,-0.014983,-0.6120950189671747,-0.5425452061210562,0.27160148814944884,-0.5071656718525412
269,6.754917621612549,0.5825,0.0465,0.4355,-9.565,-0.562,1.771,-0.00694,0.000693,-0.009379,-0.6140397663699465,-0.526629623463718,0.2717543937105875,-0.5213117632528497
270,6.781447887420654,0.5775,0.0457,0.4239,-9.554,-0.54,1.745,0.00083,-0.000344,-0.006024,-0.6160502989697978,-0.5152136221367283,0.2726614780444313,-0.529804370588429
271,6.807244539260864,0.5871,0.0429,0.4393,-9.522,-0.52,1.753,0.007929,0.000335,-0.003778,-0.6140878669670709,-0.5096346965675804,0.2695791318109628,-0.538976492428335
272,6.834753751754761,0.5794,0.0471,0.4169,-9.542,-0.561,1.77,0.0153,-0.001643,0.002251,-0.6104365878386245,-0.5126505791769085,0.2639535908140511,-0.5430332013734389
273,6.855854749679565,0.5838,0.0457,0.4336,-9.549,-0.502,1.787,0.015558,-0.002069,0.003113,-0.6054929135763932,-0.5214105925271513,0.25701274354281495,-0.5435565980335911
274,6.88045072555542,0.5765,0.0474,0.4212,-9.561,-0.515,1.797,0.020535,-0.002355,0.003363,-0.6005148224430054,-0.5326888551216465,0.24871474964318435,-0.542001388342653
275,6.905891180038452,0.5832,0.0448,0.4377,-9.541,-0.492,1.734,0.024494,-0.000731,0.004033,-0.5932892942275726,-0.5452006581299872,0.24070462587130234,-0.5411333835698311
276,6.931726455688477,0.5786,0.0468,0.4204,-9.564,-0.558,1.736,0.025891,-0.001966,0.000879,-0.5844372090812008,-0.5577968523555271,0.23010352424102243,-0.5425386514115877
277,6.957181930541992,0.5845,0.0451,0.4345,-9.547,-0.505,1.771,0.025943,-0.003367,0.005334,-0.5740464898880668,-0.5726687531932552,0.2185751810547248,-0.5429051637166168
278,6.981893301010132,0.5796,0.0466,0.4228,-9.57,-0.504,1.798,0.018497,-0.002789,0.007336,-0.5639417268021916,-0.5875277825175328,0.20883515569033576,-0.5414505621838306
279,7.007304906845093,0.585,0.044,0.4369,-9.567,-0.502,1.811,0.009618,-0.00121,0.007277,-0.5588202712532774,-0.5984435793853704,0.20403202342919452,-0.5366154304007926
280,7.039740324020386,0.5776,0.0482,0.4169,-9.523,-0.495,1.798,0.008027,0.00062,0.00441,-0.5552610891427106,-0.6075190980712284,0.19969755056764033,-0.5317203745015392
281,7.059107065200806,0.5812,0.0457,0.4336,-9.53,-0.457,1.783,0.009383,-0.001872,0.004278,-0.5527554172064224,-0.6139244252944893,0.1966685960172092,-0.5280906286958753
282,7.088306188583374,0.5734,0.0471,0.4222,-9.561,-0.488,1.776,0.000328,-0.002419,0.005834,-0.550869390674281,-0.6199531438146979,0.19539611448727148,-0.5234705076083048
283,7.106478929519653,0.5793,0.0443,0.4379,-9.517,-0.496,1.773,0.0058,-0.002242,0.009302,-0.5488178111314002,-0.6290855596736131,0.19590039641531187,-0.5144641906677269
284,7.132822275161743,0.5742,0.0468,0.4231,-9.548,-0.505,1.766,0.014164,-0.003332,0.007496,-0.5435559205172396,-0.640306966670912,0.19445849044454216,-0.5066950218794163
285,7.159015655517578,0.5822,0.047,0.4342,-9.53,-0.524,1.812,0.004562,-0.001923,0.013087,-0.5345626817137283,-0.6560630249559496,0.19452787500169047,-0.49596668482066697
286,7.181955099105835,0.5762,0.0441,0.4222,-9.542,-0.478,1.807,0.004103,-0.003489,0.014829,-0.5272156705275948,-0.671009250315576,0.20042066606759526,-0.4812710040653695
287,7.215892553329468,0.5824,0.044,0.4377,-9.551,-0.438,1.813,0.002187,-0.001022,0.013094,-0.5209206961678334,-0.6838169848961037,0.20610707745140255,-0.4674995530437045
288,7.237591505050659,0.5721,0.046,0.4182,-9.528,-0.461,1.822,0.004625,0.000522,0.008076,-0.5152051903094579,-0.6943666289090228,0.21052914330632944,-0.45617548855064294
289,7.257715702056885,0.578,0.0467,0.4328,-9.528,-0.471,1.774,-0.00096,-9.8e-05,0.006922,-0.5115821974050627,-0.7009451923711444,0.2142088260630392,-0.44841283592988446
290,7.28852105140686,0.5721,0.0466,0.4193,-9.535,-0.466,1.776,-0.002561,-0.001084,0.007624,-0.5108655935824296,-0.705417300393743,0.22002998166399168,-0.4393057986958735
291,7.307192802429199,0.5796,0.0438,0.4355,-9.554,-0.475,1.799,-2.8e-05,-0.000907,0.006574,-0.5082435149668866,-0.7105573869016842,0.22315569603071572,-0.43243295982452745
292,7.33561635017395,0.5729,0.0471,0.4195,-9.518,-0.436,1.761,-8e-06,-0.001177,0.003143,-0.5060989277902304,-0.7139816640881547,0.22429822814807848,-0.4287007854962728
293,7.359315872192383,0.5788,0.0446,0.4339,-9.549,-0.448,1.756,-0.001546,0.001558,0.000617,-0.5077729341163629,-0.7145537250004065,0.223114340295416,-0.42637965784198056
294,7.382999897003174,0.5715,0.0455,0.419,-9.53,-0.435,1.798,-0.006434,0.001967,0.001799,-0.5116216099618962,-0.7138863269115014,0.22304953007914707,-0.4229167147326693
295,7.407764434814453,0.5777,0.0435,0.4387,-9.584,-0.464,1.823,-0.00141,0.002311,-0.000328,-0.5153964106223421,-0.7131619490384782,0.22246178794153354,-0.4198539356336929
296,7.434838771820068,0.5713,0.0436,0.4216,-9.543,-0.398,1.799,0.003227,0.003554,0.000348,-0.5187217283167713,-0.712922860903481,0.21867664763439895,-0.41814983768098984
297,7.457850694656372,0.5775,0.047,0.4339,-9.521,-0.454,1.762,0.005791,0.003005,-0.004634,-0.5226414139255338,-0.7103914598575789,0.209989534587314,-0.422012229177236
298,7.490188121795654,0.5715,0.0438,0.4208,-9.548,-0.475,1.811,0.001725,0.001801,-0.002656,-0.5268561697399452,-0.707892986971499,0.20383012697099293,-0.4239851114632586
299,7.508943557739258,0.578,0.0427,0.4368,-9.565,-0.464,1.755,0.006308,0.003371,-0.000472,-0.5290746886462456,-0.7069428679199509,0.1973956761429923,-0.42584821517888777
300,7.533917427062988,0.5718,0.0452,0.4198,-9.557,-0.42,1.766,0.00584,0.003614,-0.003767,-0.5320428368353429,-0.7047666717649052,0.18963691628356444,-0.429269377109618
301,7.558819532394409,0.5762,0.0448,0.4336,-9.549,-0.474,1.788,0.005587,0.004257,-0.001882,-0.5344893931343526,-0.7035827047645437,0.1815861064583566,-0.431646790934874
302,7.586747169494629,0.5705,0.0462,0.4233,-9.533,-0.455,1.797,0.002179,0.002913,-0.005292,-0.5396315061043185,-0.6983733279053354,0.1740257592825536,-0.4367923621082933
303,7.608064889907837,0.5775,0.0448,0.4382,-9.514,-0.435,1.788,-0.002286,0.003797,-0.003645,-0.5463194881621334,-0.6921502499128098,0.1669417351573587,-0.44112753877144156
304,7.638683080673218,0.5729,0.0471,0.419,-9.56,-0.5,1.8,-0.000798,0.004579,-0.001238,-0.5531395959540365,-0.6862442997258201,0.16197377249248965,-0.44370017523793637
305,7.660165071487427,0.5801,0.0446,0.4349,-9.555,-0.491,1.775,0.001596,0.004686,-0.000665,-0.5586820707796338,-0.6822456247779378,0.15757138862810358,-0.4445070401540932
306,7.684161424636841,0.5752,0.0457,0.4209,-9.531,-0.472,1.771,0.003586,0.004664,0.003526,-0.5606616722113763,-0.6839869538539941,0.15351579917385597,-0.44074168815156334
307,7.710798978805542,0.5814,0.0435,0.4349,-9.561,-0.46,1.782,0.003009,0.004813,0.004563,-0.5604998928814702,-0.6890341522973286,0.150326046556091,-0.4341357930124835
308,7.7398412227630615,0.5726,0.0466,0.4171,-9.559,-0.443,1.796,0.006427,0.0055,0.004401,-0.5597667631858658,-0.6933218240557725,0.14557006370016548,-0.4298550635676231
309,7.76032829284668,0.5793,0.0468,0.4328,-9.592,-0.454,1.775,0.001164,0.005136,0.001517,-0.5611544834694101,-0.6952505840165155,0.14092149472147275,-0.4264661808776165
310,7.798889636993408,0.5739,0.0457,0.4217,-9.535,-0.437,1.794,0.001889,0.005601,0.001179,-0.5650099492665643,-0.6949725003437643,0.1364495385121625,-0.4232711949041049
311,7.80817985534668,0.5801,0.0448,0.4371,-9.522,-0.493,1.776,0.007187,0.005864,0.001584,-0.5648137939462591,-0.6978179925879509,0.1292923483441556,-0.42109252670667124
312,7.835293769836426,0.5731,0.0468,0.4185,-9.555,-0.444,1.769,0.006123,0.004098,0.001076,-0.5669010395852667,-0.6976491038318273,0.12220867602445695,-0.42068275308614844
313,7.863462686538696,0.5796,0.0451,0.4328,-9.541,-0.472,1.768,0.001919,0.005869,0.000152,-0.5691962829556009,-0.6967495008151796,0.11434312066083258,-0.42128538467512505
314,7.893964529037476,0.5734,0.0457,0.4211,-9.555,-0.442,1.731,0.001569,0.006393,0.003027,-0.5735951342211438,-0.6952723651116955,0.10924162466294571,-0.419107656516577
315,7.911270380020142,0.5788,0.0443,0.4366,-9.523,-0.458,1.744,-0.000331,0.007125,0.004889,-0.5760917258483277,-0.6973937932253249,0.10516416133309087,-0.41315943623617685
316,7.934779644012451,0.5682,0.0468,0.4176,-9.541,-0.451,1.816,0.001021,0.004991,0.000616,-0.57940676598997,-0.6972751786642869,0.10051886312396155,-0.4098671527458589
317,7.960792541503906,0.5738,0.0448,0.4335,-9.566,-0.485,1.763,0.004828,0.007271,0.00122,-0.5818919456663167,-0.6974813696143976,0.0930615045864994,-0.4077512219155076
318,7.990358591079712,0.5689,0.046,0.4222,-9.539,-0.456,1.773,0.005499,0.008698,0.000558,-0.5851831018650566,-0.695881872964474,0.08422246604404379,-0.40769563694563415
319,8.010677099227905,0.5746,0.0442,0.4408,-9.528,-0.46,1.75,0.005941,0.005683,-0.000419,-0.5873641413973731,-0.6945540366439108,0.0763748317534293,-0.40836863329204276
320,8.03591275215149,0.5697,0.0444,0.4211,-9.555,-0.472,1.752,0.003352,0.006228,-0.001015,-0.5912949686969687,-0.6902964602233703,0.06591101775085825,-0.4117241731253845
321,8.06119179725647,0.5762,0.0451,0.4344,-9.569,-0.427,1.709,0.003782,0.005504,-0.001295,-0.5965308869766633,-0.6844563014869238,0.057736488232286914,-0.41513488189295755
322,8.098865509033203,0.5689,0.0465,0.4217,-9.581,-0.431,1.778,0.001171,0.007501,-0.004852,-0.6036682312934519,-0.6731477800137963,0.04584073892072402,-0.4246826573392598
323,8.111797571182251,0.5743,0.044,0.4373,-9.512,-0.45,1.784,-0.004567,0.008099,-0.004396,-0.6133370710177702,-0.6595840007282026,0.036712698666755805,-0.4329188850758594
324,8.143413543701172,0.5684,0.0468,0.4195,-9.522,-0.462,1.75,-0.004106,0.00802,-0.004033,-0.6230439629835632,-0.6439096043157446,0.027492055591138237,-0.4432164578837875
325,8.161513805389404,0.5741,0.0448,0.4362,-9.56,-0.493,1.775,-0.003859,0.006192,-0.004065,-0.6325733639827232,-0.6275251039492099,0.019475461818084933,-0.45352385767463943
326,8.190320014953613,0.5684,0.0463,0.4211,-9.56,-0.454,1.716,-0.003224,0.008316,-0.003757,-0.6415233344148438,-0.6101797965208756,0.011971620617627937,-0.4647419796174978
327,8.213459253311157,0.5741,0.0448,0.4371,-9.537,-0.438,1.755,-0.002981,0.007679,-0.004986,-0.649404478745345,-0.5916462566914713,0.00510593819371169,-0.4777054106074352
328,8.238660335540771,0.5682,0.049,0.4195,-9.527,-0.497,1.725,-0.008122,0.008406,-0.008341,-0.6564383266008113,-0.5663728731661982,-0.001858432070494631,-0.4983041622756443
329,8.263837575912476,0.5762,0.0467,0.4379,-9.528,-0.423,1.716,3.4e-05,0.007775,-0.01204,-0.6629236185326273,-0.5348885263925759,-0.006901093358691157,-0.5238119082606286
330,8.2919762134552,0.5715,0.0473,0.4214,-9.57,-0.477,1.725,-0.002481,0.007137,-0.009172,-0.6653050146922238,-0.5026172458619131,-0.009650545435233276,-0.5519529042956178
331,8.312551259994507,0.5785,0.0443,0.4366,-9.56,-0.485,1.694,-0.004032,0.008203,-0.009358,-0.6655838606854738,-0.47074412193038984,-0.009984240867021654,-0.5790495755954884
332,8.343485832214355,0.5713,0.0479,0.4198,-9.554,-0.498,1.709,-0.002913,0.008378,-0.003933,-0.6654963955299047,-0.44447208767367546,-0.009131252958819086,-0.5995629500186876
333,8.362924575805664,0.578,0.0462,0.4314,-9.546,-0.484,1.704,0.001022,0.003972,-0.006068,-0.6628623978639205,-0.4239580400053513,-0.007641212314495938,-0.6171018017209795
334,8.387841939926147,0.571,0.0476,0.4211,-9.541,-0.502,1.717,-0.002103,0.005871,-0.002231,-0.6597482661092566,-0.40716976001028576,-0.007432052841283815,-0.631577213402732
335,8.413835048675537,0.5775,0.0443,0.4387,-9.555,-0.448,1.709,0.004099,0.00348,-0.00132,-0.6579171889581077,-0.39398882700155063,-0.007480868564159332,-0.6417646089314442
336,8.444480180740356,0.5718,0.0479,0.4179,-9.556,-0.455,1.746,0.014197,0.001755,-0.00511,-0.6497604213250376,-0.38267976863538544,-0.00856481909013726,-0.6567299547231196
337,8.463196277618408,0.5778,0.0459,0.4341,-9.532,-0.467,1.737,0.009542,0.002014,-0.006103,-0.6406549868565624,-0.3697605978949059,-0.007492430844936976,-0.672890891259685
338,8.487341403961182,0.5716,0.0484,0.4203,-9.57,-0.458,1.729,0.013397,-0.000433,-0.006345,-0.6285125117049928,-0.3550770898128947,-0.005492338892196302,-0.6919986395461918
339,8.51294469833374,0.5764,0.0459,0.4365,-9.547,-0.479,1.776,0.011601,0.002304,-0.007028,-0.6138114869987711,-0.33851203870200086,-0.001490217184626469,-0.713192005938734
340,8.548313856124878,0.5676,0.0474,0.4179,-9.607,-0.529,1.62,0.0118,0.001299,-0.010899,-0.5980365890216031,-0.32095176132796394,0.005842383779323168,-0.7343759743099301
341,8.562967777252197,0.5746,0.0483,0.4357,-9.527,-0.496,1.691,0.006629,0.000449,-0.009436,-0.5817100591440614,-0.303482056119614,0.015293046035979835,-0.754505249449575
342,8.587582111358643,0.5684,0.049,0.4219,-9.526,-0.532,1.748,0.017087,-0.001671,-0.005788,-0.5649597114274485,-0.2936003662141654,0.019662982226746117,-0.7708649145944265
343,8.61228895187378,0.5751,0.0483,0.4379,-9.566,-0.529,1.702,0.001759,-0.00184,-0.001608,-0.555046270026344,-0.2860754779846763,0.02460736277454101,-0.7806913197435744
344,8.638771533966064,0.5689,0.0473,0.42,-9.586,-0.507,1.702,0.006669,-0.000221,-0.00065,-0.5521178951973252,-0.28407969308820524,0.024522044925298955,-0.7834942419000079
345,8.718396663665771,0.5751,0.047,0.4352,-9.568,-0.492,1.76,-0.001526,-0.000147,0.003899,-0.5542932191410731,-0.28392127692720603,0.022188132005829142,-0.7820840252302452
346,8.721665859222412,0.5679,0.0501,0.4193,-9.542,-0.436,1.753,-0.00647,0.000512,0.001782,-0.557966278111363,-0.2812762258675495,0.02101760482058028,-0.7804585687529264
347,8.746037721633911,0.5738,0.047,0.4368,-9.58,-0.462,1.733,-0.002059,0.001103,-0.004345,-0.553235196922854,-0.2708463449664419,0.028576259447136543,-0.7872461315878664
348,8.747706413269043,0.5682,0.0501,0.4195,-9.559,-0.477,1.706,0.0011,0.000372,-0.008974,-0.5381818628815858,-0.2550344644004497,0.04380324794797083,-0.8021215493318267
349,8.762771129608154,0.5754,0.0497,0.4352,-9.542,-0.526,1.687,0.006088,-0.002351,-0.00832,-0.5165252968247718,-0.2406650637167595,0.05893050434116226,-0.8196396406375095
350,8.789285898208618,0.5679,0.0503,0.4214,-9.542,-0.559,1.7,-0.002131,-0.002053,0.000442,-0.5137486250812178,-0.2346683202531796,0.06753011881027787,-0.8224553560833433
351,8.815544843673706,0.5736,0.0464,0.436,-9.563,-0.535,1.718,-0.005968,-0.002568,0.001625,-0.5144020065988505,-0.23283609465247826,0.06863265868990331,-0.8224764354042086
352,8.846844673156738,0.5682,0.049,0.4174,-9.579,-0.487,1.725,-0.005884,-0.000447,0.005712,-0.5221033257387121,-0.2351431928793615,0.06284848537211714,-0.8174141324821258
353,8.869826555252075,0.5746,0.0459,0.4325,-9.567,-0.488,1.716,-0.013386,-0.000849,0.002842,-0.5310578718101826,-0.23481321424366808,0.062270163696373004,-0.8117651864413893
354,8.891099452972412,0.5692,0.0476,0.4209,-9.553,-0.5,1.693,-0.016336,0.00202,0.000657,-0.5340958104234885,-0.227105393369906,0.07047908717054577,-0.8112937223114596
355,8.918293237686157,0.5764,0.0462,0.4384,-9.519,-0.474,1.72,-0.007851,-0.002042,-0.001868,-0.534577761616854,-0.22075458589637417,0.07719725376052951,-0.812117364426021
356,8.94698190689087,0.5716,0.0498,0.419,-9.58,-0.578,1.741,-0.01461,0.001403,-0.00062,-0.5318524632816342,-0.2134575623692038,0.08501658622881242,-0.8150711664846537
357,8.965554475784302,0.5775,0.0478,0.4336,-9.582,-0.497,1.724,-0.009687,-0.000183,0.000758,-0.531982306331521,-0.20680316524512424,0.09321563698846268,-0.8158051983259414
358,8.990544319152832,0.5713,0.0487,0.4182,-9.548,-0.482,1.771,-0.013654,-0.001784,-0.002981,-0.5257198691712716,-0.19618784096192723,0.10724189684146485,-0.8207485155509471
359,9.015417098999023,0.5767,0.0473,0.4374,-9.522,-0.541,1.765,-0.014469,-0.00128,-0.001596,-0.520052227871542,-0.18606538737503153,0.12304708439321549,-0.8244906105767088
360,9.039544582366943,0.5713,0.0493,0.4177,-9.576,-0.502,1.692,-0.006406,-0.003258,-0.002879,-0.5102390135244901,-0.1767708684972416,0.1403261117436333,-0.8298896260896383
361,9.065269708633423,0.578,0.0489,0.4331,-9.561,-0.526,1.758,-0.00788,-0.00064,-0.006222,-0.49432514625129587,-0.1675405023466499,0.158456250676764,-0.8381315209909063
362,9.09306788444519,0.5723,0.0485,0.419,-9.575,-0.493,1.736,-0.005753,-0.002578,-0.006255,-0.4806938226762742,-0.15818095935490345,0.17831579294053004,-0.8438694869032906
363,9.11741304397583,0.5788,0.0465,0.4336,-9.545,-0.502,1.7,-0.00505,-0.002833,-0.006652,-0.4642516413084393,-0.14869018018382657,0.19784680633683865,-0.8504224156744898
364,9.141054630279541,0.5713,0.0498,0.4163,-9.549,-0.51,1.745,0.005404,-0.002843,-0.010671,-0.439423207557164,-0.14232678968476456,0.22058812883411455,-0.8590641460424632
365,9.165845155715942,0.5788,0.05,0.4336,-9.58,-0.498,1.714,-0.002203,-0.004396,-0.011914,-0.40926555421064614,-0.13865827463823013,0.24967415886741057,-0.8665670218770459
366,9.199652433395386,0.5721,0.049,0.4195,-9.555,-0.53,1.706,0.005365,-0.002107,-0.009489,-0.38293378332191447,-0.13725965644746985,0.2727905398198758,-0.8718410552890179
367,9.222657680511475,0.5785,0.0467,0.4341,-9.543,-0.517,1.761,0.001029,-0.003783,-0.005861,-0.36106538108702846,-0.13755637025351453,0.29243310820749624,-0.8747530581868574
368,9.239981412887573,0.5713,0.0501,0.4152,-9.524,-0.559,1.687,-0.005141,-0.004454,-0.011741,-0.3364041936718085,-0.13835933910980658,0.3180961374491631,-0.8755020040531267
369,9.26578164100647,0.5799,0.0503,0.432,-9.575,-0.527,1.708,0.002683,-0.004858,-0.012778,-0.3069848700883517,-0.1435500397244507,0.34554872626722943,-0.875071284757443
370,9.301966428756714,0.5716,0.0506,0.4185,-9.574,-0.491,1.706,0.006721,-0.005584,-0.012976,-0.27688021575547994,-0.15119551243789192,0.37313917771954475,-0.8724932189952103
371,9.320004940032959,0.5791,0.0489,0.4342,-9.527,-0.521,1.734,0.001909,-0.005859,-0.010124,-0.24968183086903317,-0.16094162012510768,0.3962390697430542,-0.8687642821010497
372,9.343740701675415,0.5737,0.0512,0.4163,-9.488,-0.5,1.72,0.007354,-0.006605,-0.008735,-0.2296658692682364,-0.1707368881867985,0.41158179601479694,-0.8652762152600683
373,9.407641887664795,0.5822,0.0495,0.4315,-9.571,-0.571,1.71,0.002945,-0.004826,-0.010166,-0.20828773141157034,-0.1821859820269517,0.43049370042635254,-0.859127268097994
374,9.43327522277832,0.5758,0.0512,0.418,-9.581,-0.532,1.728,0.003122,-0.005042,-0.007825,-0.19112742691339227,-0.19220832631129234,0.4463434367189601,-0.8528210846807114
375,9.435800075531006,0.583,0.0484,0.4334,-9.537,-0.505,1.745,-0.003554,-0.004323,-0.005919,-0.17616252122412712,-0.20088794750882052,0.46379744166761405,-0.8446909090100524
376,9.473198413848877,0.5753,0.0504,0.4112,-9.534,-0.534,1.747,-0.003586,-0.004633,-0.009471,-0.15665620305535646,-0.2136007965483365,0.4844052071263316,-0.8337776256695131
377,9.475804090499878,0.5807,0.0495,0.4285,-9.551,-0.533,1.743,-0.005825,-0.00386,-0.006742,-0.13902857454020276,-0.2264004978418335,0.5071366379693042,-0.8198940788098668
378,9.498384952545166,0.5732,0.0515,0.4158,-9.576,-0.543,1.731,-0.003063,-0.002479,-0.012108,-0.11959314407676487,-0.243022689357816,0.5292414309685198,-0.8040777077456644
379,9.51753044128418,0.5804,0.0492,0.4323,-9.59,-0.515,1.755,-0.009989,-0.003174,-0.014142,-0.0967051569713613,-0.2649917590248447,0.5572312490436733,-0.7809742731699237
380,9.542814254760742,0.5771,0.0517,0.4153,-9.557,-0.53,1.707,-0.007784,-0.001133,-0.015599,-0.07505928307076237,-0.2900626395633128,0.5848365643319047,-0.7537877434496536
381,9.570812940597534,0.5825,0.0511,0.4277,-9.527,-0.527,1.761,-0.011693,-0.001116,-0.017474,-0.05510175066838327,-0.32070162724112156,0.6130135174868505,-0.7199504779751
382,9.591704368591309,0.575,0.0515,0.4166,-9.54,-0.586,1.736,-0.012463,-0.001477,-0.019315,-0.037204082028659435,-0.35734242706630537,0.6391138994701885,-0.6800409322995027
383,9.62491750717163,0.5804,0.05,0.432,-9.569,-0.611,1.747,-0.010024,-0.002537,-0.016824,-0.022785533739909686,-0.399724504917347,0.6584674227446781,-0.637276857264369
384,9.64237356185913,0.5734,0.0526,0.4131,-9.538,-0.575,1.763,-0.010986,-0.003483,-0.01624,-0.01662827039853304,-0.4375223817937596,0.6724765059177424,-0.5967185392140363
385,9.668246507644653,0.5799,0.0511,0.4291,-9.536,-0.606,1.708,-0.009582,-0.002413,-0.009717,-0.015980223944357663,-0.47138212564927817,0.6797896450068132,-0.5616311624211814
386,9.692734003067017,0.5734,0.0514,0.4174,-9.515,-0.601,1.728,-0.002353,-0.002481,-0.009012,-0.017985427784198094,-0.4965890840111105,0.683037145469813,-0.535290635016974
387,9.726949691772461,0.5801,0.0508,0.432,-9.549,-0.606,1.772,-0.004943,-0.003745,-0.007219,-0.021155350438999077,-0.5183265941485437,0.6835687655499225,-0.5134430208998162
388,9.75929880142212,0.5737,0.0539,0.4148,-9.549,-0.585,1.736,0.003669,-0.006197,-0.004174,-0.024395092431200416,-0.5302542919831135,0.6813008084900006,-0.504048086644153
389,9.778618097305298,0.5809,0.0508,0.4302,-9.524,-0.586,1.773,-0.000183,-0.004905,-0.005105,-0.026802060144728496,-0.5404825692612201,0.6789659704832801,-0.496150635213225
390,9.792934894561768,0.5755,0.0525,0.4175,-9.516,-0.568,1.756,-0.001069,-0.005659,-0.00573,-0.0308961426967172,-0.5511554429971178,0.6775288992568635,-0.4860326086723995
391,9.829524517059326,0.5817,0.0511,0.4312,-9.564,-0.564,1.739,0.00064,-0.005314,-0.003363,-0.034469573482705795,-0.5594565129025423,0.6755712567203278,-0.47898197854216273
392,9.842372179031372,0.5763,0.0537,0.4123,-9.538,-0.567,1.731,0.007033,-0.005494,-0.000972,-0.036007882918315276,-0.5661768841631416,0.6720005425278862,-0.47598575509072133
393,9.870730638504028,0.5836,0.0509,0.4269,-9.54,-0.552,1.784,0.003673,-0.006246,-0.001638,-0.0376801946592949,-0.5750445347751455,0.6677504923752058,-0.47118283700527996
394,9.893917798995972,0.5781,0.0515,0.4156,-9.536,-0.591,1.734,0.003112,-0.004989,-0.000956,-0.04058678093151005,-0.5807645992985909,0.6641681556567868,-0.46898385305533397
395,9.920696020126343,0.5838,0.0519,0.4288,-9.536,-0.589,1.755,0.001901,-0.004505,0.00124,-0.04160327193575314,-0.5811082199715631,0.6628053435542768,-0.4703950265485576
396,9.943593740463257,0.5779,0.0558,0.4116,-9.553,-0.59,1.741,0.002391,-0.003301,0.003238,-0.04125778507171396,-0.58029411987845,0.6622742178146565,-0.47217516879168486
397,9.97188663482666,0.5846,0.053,0.4281,-9.545,-0.574,1.808,0.002263,-0.004369,0.001834,-0.040616218277785665,-0.5770969382663117,0.6616854617577526,-0.47695051772158703
398,9.993902921676636,0.58,0.0534,0.4132,-9.546,-0.595,1.741,0.004016,-0.005026,0.004829,-0.039408404100244265,-0.570925961161686,0.6607764444786146,-0.48565936105471813
399,10.018687725067139,0.5859,0.05,0.4299,-9.535,-0.573,1.741,0.002158,-0.004073,0.005338,-0.03797286285764806,-0.5646775401043926,0.6599131412269695,-0.49417808877367253
400,10.043668508529663,0.5802,0.0545,0.4108,-9.544,-0.574,1.769,0.00483,-0.003705,0.003107,-0.03636376264375096,-0.5589566239912696,0.6590444111360153,-0.5019020157491443
401,10.072818517684937,0.588,0.0531,0.4248,-9.557,-0.583,1.786,0.001,-0.004035,0.004696,-0.036693721735471585,-0.5555717019009693,0.6581658798166019,-0.506765556719573
402,10.095513343811035,0.5826,0.0531,0.4132,-9.536,-0.57,1.762,0.002563,-0.0032,0.00092,-0.03652561372467861,-0.5539769461147539,0.6570798061436443,-0.5099230834877332
403,10.121758222579956,0.5872,0.052,0.4264,-9.548,-0.569,1.762,0.003046,-0.003239,0.00164,-0.035676921226409836,-0.5519868935107922,0.6559685841533619,-0.5135589968912466
404,10.1452476978302,0.5818,0.0556,0.4097,-9.542,-0.578,1.792,0.005274,-0.004585,0.005255,-0.034062297053446905,-0.5444512353922422,0.6545517792020916,-0.5234258118804234
405,10.169088363647461,0.5893,0.052,0.4243,-9.531,-0.557,1.794,0.008585,-0.005135,0.002421,-0.0320343148297875,-0.5395926220371975,0.6515652962151962,-0.5322370427585926
406,10.194515228271484,0.5821,0.0534,0.4124,-9.551,-0.573,1.77,0.01535,-0.005685,0.002935,-0.028665746420260152,-0.5356030653839883,0.6462910356307999,-0.5427849745495104
407,10.218807935714722,0.5882,0.0498,0.4283,-9.522,-0.566,1.772,0.022121,-0.006783,0.001036,-0.023598747312147977,-0.5314193439274089,0.6375381735650578,-0.5572985351428711
408,10.244137287139893,0.5829,0.0542,0.4097,-9.557,-0.611,1.731,0.026422,-0.006241,0.002218,-0.017355598477445416,-0.5265581628443563,0.6261055109747559,-0.574827951191055
409,10.270748853683472,0.5901,0.0542,0.4249,-9.528,-0.546,1.745,0.039136,-0.011399,0.005897,-0.010756926227257435,-0.5173695610925708,0.6092350083207332,-0.6008708100993574
410,10.294719696044922,0.5842,0.0537,0.4116,-9.507,-0.581,1.712,0.055079,-0.01463,0.00397,0.0007108378304272467,-0.5079893067274674,0.582256903015918,-0.634762363290734
411,10.319217443466187,0.5898,0.052,0.4265,-9.528,-0.438,1.839,0.069599,-0.00251,0.003662,0.015043843470153584,-0.4971153865685184,0.547697345837135,-0.6728131929246303
412,10.345720052719116,0.585,0.0556,0.4079,-9.518,-0.392,1.884,0.088434,0.005636,-0.005988,0.051012984446353465,-0.4986189951606398,0.5167080168061107,-0.6941106528869629
413,10.371148109436035,0.5917,0.0544,0.4233,-9.466,-0.367,1.896,0.076007,0.0233,-0.021305,0.10326107693689737,-0.5257136879341896,0.49183764606548913,-0.6863366507926155
414,10.395739793777466,0.5865,0.0556,0.4106,-9.494,-0.48,1.806,0.084682,0.014723,-0.038015,0.1529997079990853,-0.5813281230200776,0.4695006609131523,-0.6466976357930041
415,10.418957233428955,0.5933,0.0571,0.4257,-9.555,-0.414,1.719,0.087131,0.015965,-0.05673,0.19993506347713969,-0.6747677683530677,0.418481758415977,-0.5740970711101779
416,10.44673776626587,0.5876,0.06,0.4066,-9.631,-0.575,1.665,0.08129,0.003964,-0.063842,0.20383888187793106,-0.7829089444492783,0.3373831000738414,-0.48132726779254476
417,10.5421462059021,0.5946,0.0601,0.4239,-9.619,-0.686,1.742,0.046781,-0.003417,-0.060026,0.1587506875362455,-0.8701654735175248,0.23057357568117623,-0.40551953603049534
418,10.547670602798462,0.5892,0.0602,0.4082,-9.549,-0.63,1.773,-0.003008,-0.006207,-0.057471,0.07555712307174348,-0.9191129527649038,0.12472695764030259,-0.36601323370978717
419,10.54972767829895,0.5962,0.0623,0.4242,-9.493,-0.472,1.749,0.004003,-0.01374,-0.0706,-0.04122351969004457,-0.9295741156435849,0.007058141825795039,-0.3662550580999237
420,10.580731391906738,0.5892,0.064,0.4055,-9.462,-0.392,1.575,0.06059,-0.034187,-0.087271,-0.1303765688504478,-0.8856813802984109,-0.1234892815822732,-0.42815983022906323
421,10.582377672195435,0.597,0.0648,0.4231,-9.539,-0.769,1.544,0.118875,-0.051979,-0.090393,-0.1344229008378901,-0.8067906883244034,-0.23161384213190728,-0.5266633622118195
422,10.597716093063354,0.5913,0.0665,0.4088,-9.499,-0.895,1.789,0.104015,-0.058557,-0.075449,-0.07567812093394466,-0.7333534864978254,-0.2926535175012038,-0.6089494269211227
423,10.626522541046143,0.5978,0.0675,0.4213,-9.472,-0.726,1.826,0.067952,-0.057626,-0.064601,-0.003567444642404438,-0.6851078488038844,-0.3101730003473918,-0.6590957583701581
424,10.645157814025879,0.5924,0.07,0.4045,-9.446,-0.531,1.596,0.07424,-0.064362,-0.070707,0.07130596198664191,-0.6520905967704624,-0.3068919285697146,-0.6895728080249851
425,10.670368432998657,0.6009,0.0713,0.4173,-9.487,-0.597,1.571,0.133451,-0.089677,-0.085371,0.18115291087321497,-0.6304331315507962,-0.31091196292539425,-0.6878018906888057
426,10.695044994354248,0.5958,0.0733,0.4016,-9.534,-0.849,1.652,0.169535,-0.104703,-0.080657,0.3128376344256555,-0.6237127517819617,-0.33041335555514795,-0.6355643415283145
427,10.724764347076416,0.6023,0.0751,0.4155,-9.397,-0.888,1.874,0.18384,-0.115148,-0.063472,0.4416551627369207,-0.6118415240044881,-0.36027222345465565,-0.5484474375350189
428,10.748358249664307,0.5969,0.0782,0.3968,-9.41,-0.826,1.749,0.176468,-0.125016,-0.057357,0.5592731734078846,-0.5899026374759553,-0.3736418288438163,-0.446788741513743
429,10.78119945526123,0.6041,0.0809,0.4096,-9.396,-0.852,2.058,0.195234,-0.123498,-0.070415,0.6677901673422313,-0.5553793625414895,-0.37549706490878193,-0.3234377997528022
430,10.799038887023926,0.598,0.0818,0.3945,-9.53,-0.902,2.107,0.110803,-0.121074,-0.061116,0.7350437951717816,-0.536360792917009,-0.36241791772669196,-0.20169524513867457
431,10.821050643920898,0.6039,0.0814,0.4085,-9.43,-0.75,2.002,0.110326,-0.125723,-0.062775,0.7742060908588985,-0.5334722778292235,-0.32691872430007907,-0.0955845456477765
432,10.848025560379028,0.598,0.0832,0.3883,-9.394,-1.1,2.084,0.083907,-0.113925,-0.054123,0.7928158237917804,-0.5330867788208045,-0.2950579652667525,0.014225080824486008
433,10.885785818099976,0.6047,0.0853,0.4029,-9.348,-0.683,2.131,0.117477,-0.115997,-0.05055,0.8090657245668544,-0.5233293463859331,-0.24634248277765852,0.1041845944529328
434,10.90550184249878,0.5998,0.087,0.3899,-9.315,-1.042,2.114,0.143463,-0.115106,-0.050907,0.8325307637585302,-0.48264057475398026,-0.1849509419709757,0.1993583508680654
435,10.927393913269043,0.6058,0.088,0.3997,-9.605,-0.89,2.054,0.113105,-0.106988,-0.023152,0.854253560791519,-0.4419045994017272,-0.10253528450587293,0.25388519912336166
436,10.946974754333496,0.5993,0.0884,0.384,-9.335,-0.591,2.6,0.104979,-0.023009,0.007488,0.903030659244878,-0.34602004044151935,-0.02569589470752289,0.2532695818131152
437,10.972118616104126,0.6069,0.0907,0.3987,-9.543,-0.684,2.376,0.133097,-0.020901,-0.005154,0.9519842353302139,-0.21747152556473456,0.03630897287866782,0.21240011708987117
438,10.997332096099854,0.602,0.0908,0.3849,-9.567,-0.352,2.572,0.003192,-0.019182,-0.053629,0.9258151904234032,-0.2504165664524344,0.0329407630512354,0.28119865319210446
439,11.034641742706299,0.6092,0.0907,0.4,-9.892,0.074,2.384,0.023259,-0.044316,-0.112981,0.7625567734056989,-0.4302906299744918,-0.08451636684311474,0.4756197271191394
440,11.048823356628418,0.6025,0.0935,0.3827,-9.539,0.061,2.776,-0.025773,-0.01997,-0.19454,0.28171361452970733,-0.5573716345710609,-0.499548728839846,0.6003543685846596
441,11.082928657531738,0.61,0.0975,0.4009,-9.354,-0.983,2.538,-0.21435,-0.008193,-0.255073,-0.2571655667944475,-0.07185958599736829,-0.9614155387971127,0.06619843589568251
442,11.098562717437744,0.6041,0.0984,0.3858,-10.005,-0.727,2.311,-0.481757,0.006487,-0.274108,0.25260735628957387,0.5551891460522768,-0.34180088664820996,-0.7149312481215473
443,11.121704578399658,0.6098,0.0991,0.3985,-9.638,-1.202,2.339,-0.569943,0.027639,-0.284782,0.8611148668866995,-0.2810140033956465,0.4220909837153134,-0.036762989384605815
444,11.147418737411499,0.6044,0.1019,0.382,-9.195,-0.489,1.855,-0.50919,0.053721,-0.318236,-0.24216526208520356,-0.7561458149171565,-0.49349803731011016,0.35504813700897375
445,11.17259955406189,0.6127,0.1067,0.3986,-9.138,-1.094,2.177,-0.30931,0.049953,-0.372587,-0.26915989502798227,0.42348960911393263,-0.3868596077557715,-0.7736595800273559
446,11.198518753051758,0.6044,0.11,0.3864,-9.247,-1.323,2.048,-0.301328,0.032586,-0.364447,0.7110588475702988,-0.054559896631267035,0.6799845750452942,-0.17040983150057643
447,11.226043224334717,0.6096,0.1127,0.4016,-9.52,-2.03,1.699,-0.28748,0.011694,-0.332815,-0.0752549535305386,-0.7334609041127463,-0.07298100644380252,0.6715992605755897
448,11.24706244468689,0.6031,0.1179,0.3838,-9.236,-1.211,1.74,-0.273083,0.012944,-0.320974,-0.6896076389957637,0.12633482988800354,-0.7127198417258997,-0.02261066575902343
449,11.272190570831299,0.6094,0.1222,0.3987,-9.211,-1.314,1.99,-0.076762,0.023023,-0.374712,0.12889007038078054,0.8241958781390314,0.04653808870724731,-0.549474940752847
450,11.29781198501587,0.6027,0.1271,0.3879,-9.241,-0.813,2.277,-0.030215,0.008621,-0.434436,0.7177346020088461,0.11312163520730534,0.5741829265968841,0.37732546101723086
451,11.321824550628662,0.6063,0.1338,0.3999,-9.475,-1.172,2.401,-0.008454,0.009638,-0.51926,-0.15737648423635797,-0.1530226752258884,-0.34983625413676883,0.910731188862921
452,11.351074695587158,0.5981,0.145,0.3859,-9.573,-1.809,2.21,0.011777,0.046076,-0.595309,-0.17764676638380242,0.8995478664398444,-0.37945069185149016,0.12358169294166449
453,11.37295937538147,0.6051,0.1522,0.4022,-9.586,-1.587,2.128,-0.074754,0.060098,-0.650391,0.4251544242208517,0.5918602340833071,0.21008562862116587,0.6517738929438172
454,11.397478103637695,0.596,0.1612,0.3901,-9.539,-1.801,2.258,-0.043882,0.062707,-0.69821,0.021042255706369917,0.6195213390678719,-0.18875108564996085,0.7616584284180801
455,11.429119110107422,0.5989,0.1706,0.4045,-9.665,-1.747,2.281,-0.135869,0.109937,-0.730979,0.09395315713083639,0.5603792629942039,-0.11768660097119424,0.8144309361898455
456,11.452700138092041,0.5909,0.1845,0.3889,-9.536,-2.52,2.22,-0.109414,0.110556,-0.792679,-0.10397300647864144,0.9015919763703222,-0.3023109288336773,0.2914268765508219
457,11.475588321685791,0.5951,0.1944,0.4068,-10.696,-2.782,1.319,-0.181274,0.130752,-0.778369,0.6386012301923197,0.29886305549055203,0.4801263967661943,0.5218697021173176
458,11.500962495803833,0.5837,0.2031,0.3955,-10.435,-2.551,1.307,-0.170388,0.161883,-0.835417,-0.5389395441991698,-0.21954201437282417,-0.6159086014555464,0.5310386674024659
459,11.535078287124634,0.5858,0.2177,0.4135,-10.589,-3.008,2.742,-0.230431,0.143028,-0.877065,0.04269401390183797,0.5282194787793232,0.1356280104880972,-0.8371179404278052
460,11.554975032806396,0.5752,0.2283,0.3973,-10.847,-2.769,2.618,-0.349516,0.151285,-0.874668,0.18199561416968899,-0.8006555196827949,0.5695297631877038,-0.038264658208709654
461,11.575953960418701,0.5762,0.2404,0.4166,-11.252,-4.03,2.599,-0.500058,0.119229,-0.772061,-0.6470470757030448,-0.6122614536330763,0.1504914032778864,-0.4287404013604308
462,11.601481199264526,0.5664,0.2464,0.4066,-12.189,-3.117,2.035,-0.736893,0.130223,-0.620334,-0.6146273094311252,-0.3549190280877094,0.6170860283452615,-0.33980963438931877
463,11.634803771972656,0.5666,0.2514,0.4239,-13.048,-1.313,1.571,-0.912836,0.198275,-0.553682,-0.8990015974418092,0.054846511201159756,0.43448616398079765,0.003124310385939997
464,11.65481448173523,0.5552,0.2577,0.4128,-13.112,-0.109,1.293,-1.039317,0.212714,-0.578611,-0.2570691507223589,0.7398874128851534,0.6204033408821653,-0.03977137944863984
465,11.673552751541138,0.5546,0.2597,0.4349,-12.158,1.224,1.19,-1.190009,0.239533,-0.612831,0.32459628978781285,-0.07710652533294779,0.4396351055779149,0.8339141480695489
466,11.702539920806885,0.5421,0.2605,0.4289,-10.668,-0.234,1.051,-1.178029,0.235181,-0.707658,-0.6125721525383492,-0.05720061151986594,-0.7493342143009178,0.24491158252380185
467,11.726733684539795,0.535,0.266,0.4518,-10.558,-1.983,2.005,-0.818404,0.133562,-1.022068,-0.2734773289646023,0.5560237177317292,0.28237765296010414,-0.7323323268645978
468,11.749922275543213,0.5191,0.2812,0.4429,-11.079,-2.683,2.569,-0.626494,-0.020758,-1.199041,-0.42241062616012887,0.16893288259427303,0.8903930524563546,0.015203822639482625
469,11.777114629745483,0.5175,0.2884,0.4619,-11.445,-1.473,3.291,-0.791441,-0.235032,-1.09927,-0.8194238904283012,0.4645055735608443,0.17677768925836296,0.28553232480182
470,11.799139738082886,0.5053,0.2965,0.4567,-10.005,-1.645,1.07,-0.646666,-0.098493,-0.780665,-0.5963122930429585,0.693815607860058,-0.37448141824647097,-0.1509808558849069
471,11.823489904403687,0.5016,0.3039,0.4799,-11.874,-8.667,2.535,-0.120701,-0.189244,-1.115048,-0.32266307026129676,0.4082040757964992,-0.38118423916121413,-0.7641704989122294
472,11.850316047668457,0.4895,0.3194,0.4654,-11.593,-6.659,3.167,-0.234542,-0.126882,-1.349721,-0.11721253233949833,-0.4354656921655299,-0.13163901624659585,-0.8827808463095395
473,11.877354621887207,0.4887,0.3309,0.4879,-9.295,-4.224,1.222,-0.443161,0.000489,-1.339021,-0.17081938272582217,-0.9645315511627837,0.07632580538151855,-0.1862095505862846
474,11.899677038192749,0.4756,0.3401,0.4876,-9.516,-4.131,0.838,-0.309537,0.012006,-0.938247,-0.45010309111833524,-0.6826679867393385,-0.3485883760719638,0.4581023589924955
475,11.925349950790405,0.4803,0.344,0.5109,-8.646,-5.625,1.544,-0.279385,0.01428,-0.476967,-0.437858049877738,-0.2333557152299689,-0.6641708518708398,0.5591981025110303
476,11.950962781906128,0.4772,0.3441,0.5012,-7.936,-7.602,1.361,-0.321503,-0.121571,-0.318171,-0.26747005520941736,-0.02446240955353189,-0.8205946210155936,0.5044658839261391
477,11.97392988204956,0.4901,0.3402,0.5201,-7.543,-5.885,0.354,-0.032373,-0.089906,-0.156807,-0.06194934384805092,-0.016512935746188385,-0.8531130182142698,0.5177719381186828
478,12.002942323684692,0.4891,0.3368,0.5074,-6.025,-4.63,-0.191,0.352007,-0.000613,0.185512,-0.06905490391505718,-0.06832196313221682,-0.7545941455714745,0.6489616360527783
479,12.026971817016602,0.5071,0.3275,0.5172,-5.647,-3.852,-0.024,0.709787,-0.001024,0.538914,-0.11615254190160652,-0.349095151895267,-0.3777505410456087,0.8496738731258986
480,12.052948236465454,0.5126,0.3209,0.4969,-5.319,-3.783,0.173,1.068992,-0.024204,0.92677,0.3486973983420696,-0.714279641072515,0.3160282710307439,0.5180162648490003
481,12.084594011306763,0.5342,0.3101,0.5054,-4.182,-3.959,0.744,1.199181,-0.086975,1.369914,0.8570705817023144,-0.23765947962971476,-0.07645218811965304,-0.45066956038133604
482,12.102806329727173,0.5423,0.2916,0.4831,-3.533,-3.952,0.313,1.128081,-0.043746,1.837354,0.7048701980290778,-0.31550495704313064,-0.49791852421865235,0.3945779634642314
483,12.128423929214478,0.5669,0.2616,0.4833,-3.101,-5.843,1.013,0.885522,-0.082902,2.194831,0.29775374105321073,0.24790475977708873,0.7143080102708519,-0.5827949950296226
484,12.154056310653687,0.5757,0.2249,0.4617,-4.857,-4.251,0.848,0.612435,-0.095701,2.527938,-0.020484663680865794,-0.5499059177944363,0.6624704267175361,-0.5082487519445829
485,12.198680877685547,0.5948,0.1888,0.4691,-4.289,-4.818,0.514,0.686046,-0.149358,2.564574,-0.46400023605366847,0.45079843399672137,-0.6951215899840038,0.31351320225208107
486,12.199933290481567,0.5944,0.15,0.4496,-4.965,-4.94,0.462,0.818106,-0.204068,2.621548,-0.26078093836613697,0.16262450364237158,-0.20853140511590978,0.9284725230615787
487,12.233526706695557,0.6059,0.105,0.4533,-6.28,-6.692,0.919,0.82196,-0.136128,2.548614,-0.31275659419238366,-0.5980787340459,-0.7101749015531853,-0.20034158299054625
488,12.253021717071533,0.599,0.0712,0.4386,-7.374,-5.238,0.622,0.647657,-0.033171,2.357494,0.6964650404817518,-0.21712964604811813,-0.16235855303269187,-0.6644026372997784
489,12.276241540908813,0.6048,0.0356,0.4483,-7.603,-4.835,0.256,1.041638,0.060341,1.989572,-0.21445978757391382,0.7085860001756221,-0.09520897751268692,-0.6654683542211859
490,12.302446126937866,0.593,0.0153,0.4377,-7.855,-6.052,0.673,1.398418,0.129208,1.583035,-0.9185904568285631,-0.3477673371492554,0.10983992857232953,-0.15226503842587608
491,12.326710939407349,0.5918,-0.0024,0.4535,-8.234,-7.601,1.369,1.328137,0.156953,1.144915,-0.1533257311624631,-0.7285535508470823,0.13308612801191258,-0.6542087023591178
492,12.354955673217773,0.5811,-0.0105,0.4452,-8.076,-7.773,3.014,0.82917,0.16218,0.66236,0.50730361746373,-0.5131220931678888,-0.08757639726272629,-0.6867890009702391
493,12.38029146194458,0.5873,-0.0095,0.4582,-15.92,-14.516,3.252,0.148857,-0.270757,-0.654042,0.6437520764825383,-0.3503490328391473,-0.39701499205052976,-0.5524653068747502
494,12.400995969772339,0.5827,0.0033,0.4432,-10.695,-4.233,-2.092,-0.434226,0.142985,-1.04422,0.41064469072745163,-0.6240501604612962,-0.4967328270473729,-0.44180180368476385
495,12.427085876464844,0.5885,0.0163,0.4539,-6.235,0.896,0.884,-0.322031,-0.042924,-1.112407,0.0761053495651614,-0.8395049298912752,-0.48802310139988964,-0.2264352025543792
496,12.456704139709473,0.5824,0.0307,0.4394,-6.525,0.34,2.266,0.140865,-0.291913,-0.881764,0.7760617933675357,-0.2826378978013839,0.39990279386035255,-0.397393592127834
497,12.479512214660645,0.5923,0.0434,0.4493,-13.466,-5.777,3.196,0.301061,-0.440673,-1.033939,-0.5664565770943297,-0.42697744352077377,-0.5284807001579057,0.46639613908312966
498,12.504101276397705,0.5883,0.0592,0.433,-8.303,-2.68,0.785,0.019701,-0.080475,-0.873637,-0.04969053111594644,0.7341591137914084,0.6201705780346042,-0.2719001671471606
499,12.538050889968872,0.5948,0.0706,0.4453,-8.341,-2.686,2.004,-0.1946,-0.142909,-0.758988,-0.425060888324121,0.042937102857420056,0.5564655932370792,0.7126188953140562
500,12.557878494262695,0.5907,0.0801,0.4305,-8.497,-5.105,1.884,0.067578,-0.069725,-0.658888,-0.6419130165216748,0.4317908820444225,0.4883920645901346,0.4037047245806389
501,12.578520774841309,0.5975,0.0912,0.4439,-10.455,-3.608,2.849,0.213407,-0.013491,-0.417446,-0.5880749236213062,0.1528142780985781,0.670003093500092,0.4265108853444566
502,12.604130029678345,0.588,0.0951,0.4274,-8.455,-4.111,3.324,0.046531,0.042182,-0.221941,-0.7436497643045932,-0.025578859606472465,0.5178527456130648,0.4220891894516676
503,12.627318143844604,0.5913,0.0988,0.4428,-8.892,-4.35,1.926,0.082497,0.111227,-0.016037,-0.8404999290355698,-0.021260381373959053,0.4451529584790816,0.30813423865639644
504,12.653605222702026,0.584,0.0967,0.4295,-9.088,-3.326,1.601,0.035805,0.072123,0.157186,-0.8163222799668841,-0.02438190669890289,0.5217599164862492,0.24655637773875633
505,12.678574085235596,0.5926,0.0977,0.4445,-9.566,-3.061,1.299,0.04282,-0.011124,0.254154,-0.7191515256713226,-0.007303378287105755,0.6599920377390219,0.2172055568149625
506,12.703297138214111,0.5845,0.0896,0.4322,-9.501,-3.162,1.815,-0.072411,-0.078418,0.34472,-0.6721286008130403,0.12271185613000804,0.7121011412273156,0.1615453775166211
507,12.735514879226685,0.5917,0.0825,0.443,-9.161,-2.82,2.091,-0.200097,-0.122977,0.432955,-0.7304354914683007,0.20053857015248178,0.5823503949184946,0.29515469202256234
508,12.758641242980957,0.5847,0.0761,0.428,-9.366,-2.277,2.308,-0.09728,-0.123804,0.461765,-0.4665049196816919,0.17660911894471745,0.7100005839839918,0.49707298232828884
509,12.777016162872314,0.5935,0.0687,0.4399,-9.617,-2.616,2.317,-0.08239,-0.112892,0.489843,-0.3492963226658733,0.6190255211397558,0.6955273184730459,0.10507726874755632
510,12.805163145065308,0.5865,0.0612,0.4263,-9.261,-2.342,2.18,-0.245319,-0.090929,0.515992,-0.8092483537333213,0.5145025811639142,0.006264336617875857,0.2834871320577308
511,12.827262878417969,0.5927,0.0498,0.4359,-9.441,-1.557,2.02,-0.330427,-0.105822,0.541371,-0.20216001482525794,-0.09185969486823907,0.2974092241982426,0.9285692640973882
512,12.852144002914429,0.5869,0.0412,0.4185,-9.553,-2.128,2.343,-0.349111,-0.105415,0.536116,0.40938551918743193,0.6989598987559018,0.5821141355286066,0.07072262600158172
513,12.877998352050781,0.5952,0.0332,0.4328,-9.033,-1.871,2.405,-0.388171,-0.095163,0.528283,-0.5216009377872202,0.6148346534433645,-0.5901760206427159,-0.040038422583803274
514,12.903869867324829,0.5863,0.0219,0.4197,-9.91,-1.071,2.513,-0.525897,-0.047592,0.50836,-0.02082627191201747,-0.5256710183457938,-0.1929659260674864,0.8282514100479759
515,12.928824186325073,0.5904,0.0094,0.4304,-8.673,-1.153,2.338,-0.333626,0.006792,0.434668,0.7461242762444666,0.0034007651441036735,0.6621595713149564,0.06951044030286846
516,12.953217267990112,0.5841,0.007,0.4187,-9.158,-0.486,2.58,-0.195437,0.033327,0.374775,0.036521981472463716,0.6693763115765115,0.14153777976764972,-0.7284013696225415
517,12.978028059005737,0.5924,-0.0001,0.429,-9.153,-1.219,2.238,-0.105896,0.064373,0.348069,-0.8000258206314419,0.16662931529964853,-0.4954201795514778,-0.29453726979609884
518,13.002898931503296,0.5841,-0.006,0.4172,-9.216,-0.654,2.085,-0.063073,0.054735,0.311356,-0.6160197175492531,-0.6248624253005649,-0.10991623417316099,0.4668887217562929
519,13.030191421508789,0.5897,-0.0131,0.4326,-9.562,-0.931,1.802,-0.030537,0.042542,0.214641,-0.05699134634061337,-0.6408366989583061,0.5982592241495206,0.4776674705592996
520,13.053272247314453,0.5838,-0.0136,0.419,-9.326,-1.327,1.778,-0.121814,0.042709,0.15261,0.14881151197519038,-0.32078656918612564,0.9153206255045533,0.19271549875245164
521,13.095815896987915,0.5897,-0.0174,0.4285,-9.481,0.281,1.963,-0.16451,0.018145,0.039389,0.14166124057318044,-0.14330625347008175,0.9724644875196701,0.11708215555216733
522,13.103631734848022,0.5817,-0.0144,0.4206,-9.602,-0.908,2.414,-0.022163,0.009832,-0.044885,0.10953963935052186,-0.2204071882578059,0.9406509888829572,0.23366098495204687
523,13.128417253494263,0.5876,-0.0166,0.4323,-9.686,-1.524,2.296,-0.255157,0.028222,-0.041322,-0.025145814157148755,-0.3740656687120317,0.8015751456108953,0.4657465506692099
524,13.153843641281128,0.5843,-0.0155,0.4169,-9.697,0.423,1.721,-0.234402,0.047249,-0.14663,-0.39233455318841226,-0.44107111930311105,0.39428404483969715,0.7043223396116279
525,13.179152727127075,0.5934,-0.0155,0.4321,-9.488,-0.869,2.342,-0.071131,0.039742,-0.281988,-0.9289624499473805,-0.016090587319116348,-0.22031679435868692,0.297035973765802
526,13.208172798156738,0.5856,-0.0112,0.4215,-9.573,-0.846,2.309,-0.300153,0.064541,-0.332218,-0.3615281512355512,0.7754395766444282,0.22926886745249986,-0.46414076017385353
527,13.229725360870361,0.5921,-0.0093,0.4299,-9.665,0.076,2.036,-0.285864,0.065709,-0.482007,0.33116368510782923,-0.22393441927018082,0.7330838866341279,0.5502472214280871
528,13.256448984146118,0.5865,0.0019,0.4173,-9.841,-0.862,2.342,-0.237703,0.074302,-0.586509,-0.7665709521996782,0.2561930718775729,-0.5848395256824139,-0.06853330843597641
529,13.282366752624512,0.5948,0.0062,0.4317,-10.206,-0.936,2.059,-0.283465,0.103955,-0.638361,0.7197983370261964,-0.06375445246064504,0.69082798442575,0.024133373987506257
530,13.305011749267578,0.5871,0.0154,0.4207,-10.441,-1.354,2.29,-0.303399,0.144546,-0.674692,-0.5886280447885999,-0.16903588423170263,-0.7709995916033864,-0.17465258222473562
531,13.328168392181396,0.5909,0.021,0.4327,-12.449,-2.897,1.122,-0.483886,0.192902,-0.611639,0.6997293254957383,-0.2859572248330713,0.5230078658836981,-0.39378942193871486
532,13.359506607055664,0.5845,0.0271,0.4229,-13.193,-1.711,-0.198,-0.808301,0.313785,-0.565771,-0.6201814682968273,-0.4285601195673185,-0.46383205829842555,-0.46537188569173704
533,13.381968259811401,0.592,0.0297,0.4398,-12.459,-1.781,2.284,-0.784187,0.36177,-0.528504,0.10022039160140882,-0.5463976002436909,0.7865164824780158,-0.26980985590894413
534,13.40477466583252,0.584,0.0319,0.4292,-12.43,-0.485,3.582,-0.778966,0.381441,-0.431217,-0.9250829280110997,-0.09310424557183591,0.17045868928122362,-0.32633879788869286
535,13.43038034439087,0.5878,0.0321,0.4422,-12.473,0.307,3.396,-0.992462,0.365244,-0.413455,-0.29770632308928924,0.06632844597713067,0.9347903721780725,0.18203967295646076
536,13.458728790283203,0.5808,0.034,0.4316,-11.996,2.673,2.117,-1.154251,0.343241,-0.467867,-0.605881311494748,0.5673862527375026,0.17535387633757024,0.529369147796967
537,13.48250436782837,0.587,0.0348,0.446,-11.377,2.495,0.544,-0.864453,0.319987,-0.694626,0.032972262457418466,0.7067287225938461,-0.007400983322319976,0.7066771313797925
538,13.510978698730469,0.5791,0.0475,0.4352,-13.194,0.989,1.654,-0.124792,0.131368,-1.148389,0.4679384560034202,0.8049747875338907,0.13245977877126935,0.3398582054854183
539,13.5340256690979,0.5836,0.0676,0.4392,-12.778,-0.218,3.959,0.519705,-0.005099,-1.46788,0.46141578032591385,-0.49029088339847626,0.4623217004015589,0.577034637314244
540,13.555521726608276,0.5786,0.0959,0.4257,-14.035,-5.406,2.727,0.276318,0.030186,-1.675318,0.00473842424140887,-0.8535378033622428,-0.45862929232512284,-0.24720424306355024
541,13.58145546913147,0.5875,0.1202,0.4328,-15.071,-9.524,4.063,-0.838632,0.093438,-1.952409,0.4325187766314173,-0.8743439369706402,0.11581068926115878,-0.18718459337455867
542,13.605049133300781,0.5786,0.1455,0.4227,-14.618,-6.416,3.72,-1.630072,0.281554,-2.568159,-0.11414725141803708,0.7714663625614203,-0.625929577872008,-0.004713806840380044
543,13.629648685455322,0.5782,0.1793,0.4357,-13.466,-3.934,2.39,-1.554822,0.446669,-2.713894,-0.05734402085114626,0.39622848582475434,-0.8129483847491134,-0.42288245887888665
544,13.65558409690857,0.5632,0.2104,0.4286,-10.826,-3.004,0.373,-1.128326,0.511672,-2.488531,-0.24875800749366767,0.4547287496295141,0.6695903059986873,0.5319680818251632
545,13.698803901672363,0.5599,0.2382,0.4447,-8.513,-2.77,-0.113,-0.378043,0.409688,-2.164773,0.039659265338983035,0.8316461322375261,0.17150064296133072,-0.5266681904871279
546,13.70470905303955,0.5444,0.2667,0.4333,-5.746,-3.532,-1.027,0.477907,0.376473,-1.86437,0.5940930846705752,-0.3357392819052061,-0.16856046396489477,-0.7112804730345946
547,13.740534782409668,0.5399,0.2976,0.4338,-4.484,-4.613,-0.314,1.246038,0.04008,-1.524993,0.2500115089071769,-0.5499806906280493,-0.7197560981385881,0.34200386626844675
548,13.769123554229736,0.5299,0.3219,0.4086,-3.335,-2.536,-0.646,1.657539,0.002114,-0.789019,0.3209631431260402,-0.6263377112200635,0.3109837422017258,0.6387275196392246
549,13.781219244003296,0.5355,0.339,0.4026,-1.772,-2.437,0.322,1.703055,0.019309,-0.04724,0.7764440343210764,-0.08319987822479441,0.5940907917984888,-0.19305070041529263
550,13.818886995315552,0.5299,0.3394,0.3783,-1.024,-3.105,0.821,1.432385,-0.012133,0.602008,0.2051002787757038,0.6747473847198023,0.2145958111169354,-0.6757207117670585
551,13.830172538757324,0.5422,0.3309,0.3708,-0.826,-2.525,0.813,1.064522,-0.063876,1.284845,-0.7074744272158905,-0.04156145623232609,-0.13738174983660106,-0.6920107188499537
552,13.857128381729126,0.5497,0.3118,0.3501,-1.193,-1.869,0.998,0.878025,-0.102732,1.930622,0.0829274721997138,-0.5251198198690401,0.23243716708296816,-0.8144600496609498
553,13.902072191238403,0.5715,0.285,0.3541,-2.117,-2.121,0.364,0.81697,-0.091364,2.411497,-0.605234725571995,0.5905126044933695,-0.488927904402398,-0.21432520895342347
554,13.90676760673523,0.5758,0.2447,0.3354,-2.5,-3.954,0.594,0.920877,-0.116353,2.682254,-0.4529005424725647,0.783844761567315,0.3947496727810318,0.1569751070418623
555,13.93359637260437,0.5909,0.1954,0.3372,-3.353,-3.898,0.841,0.893312,-0.057692,2.913316,0.395573548314809,-0.6924285364020039,-0.5270940958220593,0.29365984403615064
556,13.97119426727295,0.5942,0.1503,0.3209,-4.376,-4.878,0.593,0.842798,-0.038313,2.914734,0.5125279202370316,-0.6146882878118802,-0.06965790881390793,0.5955008106997632
557,13.986048698425293,0.608,0.1099,0.3309,-5.759,-5.693,0.599,1.06105,-0.030015,2.770263,-0.7740256793359275,-0.31808700194455597,0.4877942109471962,-0.24851904290995963
558,14.014148950576782,0.5985,0.0674,0.3177,-6.984,-8.618,1.546,1.004603,0.106205,2.547664,0.5210975856117525,-0.4764106860771741,0.6515945127527402,0.2773350958887061
559,14.033299207687378,0.5995,0.0218,0.3324,-8.133,-9.099,2.47,0.49197,0.176144,2.107559,0.22747638828315042,0.3695932905877009,-0.09858047282982428,0.8955094542788798
560,14.057912349700928,0.5902,-0.0086,0.3229,-9.281,-8.249,1.992,0.202003,0.214408,1.433169,0.49403371695471693,0.6624676216182209,0.28214691163272393,0.48729914536711416
561,14.08302092552185,0.5916,-0.0265,0.3383,-8.554,-8.049,1.64,0.413491,0.172433,0.715323,-0.6415785353625011,0.20880051735497748,-0.655419630241789,0.33941778858527477
562,14.122278213500977,0.5838,-0.0325,0.3293,-17.743,-20.146,11.251,0.60948,-0.691977,-0.807839,-0.42231828153459455,-0.2528334144803766,-0.13320670776637197,0.8602200338343123
563,14.137940883636475,0.5946,-0.0156,0.3298,-10.467,1.491,-8.597,-0.627434,0.6218,-0.892133,-0.11259377489266315,0.8070434989833527,0.33487239572562433,0.4731425907536843
564,14.162768602371216,0.5873,-0.0091,0.3271,-4.312,-0.59,6.107,-0.214381,0.154341,-0.703171,-0.26280929317633794,0.6625379522250925,-0.1758112518518661,0.6790177766478683
565,14.192307233810425,0.5962,0.0052,0.3346,-9.732,-4.606,-0.069,0.504752,-0.095532,-0.890435,-0.2942254671401774,0.4166689837195231,0.28188771814986663,0.8126239270711548
566,14.206894397735596,0.5888,0.015,0.3244,-10.487,-4.738,1.065,0.031935,-0.109577,-0.701339,-0.7540350579197267,0.5897086345072609,-0.11798776020136481,0.26410934526866214
567,14.231303930282593,0.5943,0.0247,0.3332,-7.865,-2.498,2.57,0.082662,-0.171977,-0.562973,-0.2735407737477556,0.8615814652690617,0.12759273514876557,-0.40813345579547006
568,14.257997512817383,0.5915,0.0308,0.3189,-9.291,-4.403,2.266,-0.153041,-0.16038,-0.351452,0.22782072637700673,0.7115633271863919,0.3488274274080353,-0.5657691878534714
569,14.282370567321777,0.5998,0.0364,0.3288,-9.356,-4.829,2.465,0.070858,-0.023488,-0.162172,0.4954208601262854,0.49872402536819455,0.4530310549676905,-0.5482657942158506
570,14.322152137756348,0.5912,0.0346,0.3203,-8.937,-4.315,2.628,-0.018708,0.095967,0.090174,0.5702236482688083,0.41940918423836443,0.5504160616723422,-0.4426997698041284
571,14.330867767333984,0.5956,0.0326,0.3295,-8.961,-3.754,2.392,0.152111,0.132532,0.215948,0.46877733686727935,0.5228476482502871,0.5984482481049349,-0.3856654502271364
572,14.359951734542847,0.5909,0.028,0.3221,-9.748,-4.183,1.236,0.090162,0.108106,0.355536,0.09583602157466845,0.7661907088210924,0.46462863844381697,-0.43345989782541183
573,14.38610029220581,0.5974,0.0264,0.3335,-9.358,-3.574,1.156,0.034149,-0.026895,0.4267,-0.5473384228761843,0.7944605691894199,0.04981356673394846,-0.2584021350838197
574,14.431360960006714,0.5896,0.0164,0.3247,-8.927,-3.578,1.111,-0.111212,-0.198737,0.501623,-0.7972613808293372,0.17024394458497558,-0.10411634208046855,0.5696938452204213
575,14.435790300369263,0.5937,0.0109,0.3295,-9.021,-3.843,1.706,-0.264386,-0.255226,0.635245,0.01426898510122171,0.27484507835147304,0.6134619001330682,0.7402169114896519
576,14.466193914413452,0.5898,-0.0025,0.3132,-9.202,-3.753,2.724,-0.404946,-0.208859,0.772758,-0.18889869117330982,0.8820262676406111,0.07571666191101548,0.4249869818877242
577,14.483902215957642,0.5964,-0.014,0.3237,-9.372,-2.395,3.035,-0.453079,-0.112301,0.841623,0.13774677744934932,0.683503098046732,-0.14352232426615835,0.7023180780102977
578,14.50806999206543,0.5878,-0.0247,0.3124,-8.845,-1.856,3.039,-0.224526,-0.012134,0.822412,0.14148593573545246,0.4154208926740264,-0.512467359757741,0.738095127406968
579,14.532974004745483,0.5898,-0.0378,0.3196,-9.349,-1.129,2.528,-0.131989,0.070633,0.808659,0.8025076413130434,0.49720129453552586,0.1345200041550208,0.3011257657997836
580,14.557320594787598,0.5853,-0.0491,0.3122,-9.41,-0.94,2.387,-0.044704,0.06964,0.719697,-0.3566521267789071,0.4401922391243969,-0.8237351620376329,-0.022145787445177534
581,14.587051391601562,0.5902,-0.0568,0.3278,-9.035,-0.841,1.995,-0.075713,0.075507,0.622828,0.38832139105332425,-0.5687660782223962,0.2240187406426417,0.6895848384026516
582,14.61026906967163,0.5837,-0.0649,0.3182,-9.422,-0.447,1.814,-0.073027,0.036502,0.478192,0.330493349980017,0.5599792129586412,0.43480400991225077,-0.6230111553073784
583,14.636008262634277,0.5867,-0.0734,0.3273,-9.101,-0.523,2.02,-0.071853,0.014383,0.359456,-0.7759448781070301,0.20770129814397953,-0.47252761376738966,-0.362611873931437
584,14.6661057472229,0.5821,-0.0771,0.317,-9.347,-0.681,2.224,-0.110341,-0.008181,0.259899,-0.633127379708181,-0.6108770004198554,-0.19674649312161588,0.43274684154392024
585,14.68656849861145,0.587,-0.0785,0.3259,-9.351,-0.395,2.317,-0.058692,-0.000903,0.136446,-0.17670613449085193,-0.7298977821193008,0.35078436112895806,0.5594412405945552
586,14.710395574569702,0.5781,-0.0793,0.3159,-9.35,-0.629,2.031,-0.102907,-0.010347,0.021409,-0.042414285914306016,-0.6736121692513745,0.5205973968725592,0.5229015434633485
587,14.735595941543579,0.5838,-0.0812,0.3267,-9.456,-0.865,2.113,-0.123435,0.001452,-0.062743,-0.19318945913119592,-0.6902084705826566,0.36527106336866016,0.5940262201974542
588,14.758561849594116,0.5813,-0.0793,0.3129,-9.619,-0.899,2.286,-0.096188,0.003619,-0.108088,-0.5068058917264874,-0.6374445473104775,0.01367827774556496,0.5801940554102358
589,14.789692640304565,0.5885,-0.0793,0.3262,-9.623,-1.743,2.205,-0.204169,0.022126,-0.10181,-0.8180661755741672,-0.33478370714761013,-0.32877735664944596,0.3325553360939532
590,14.813373804092407,0.5807,-0.0793,0.3145,-9.815,-0.777,2.099,-0.271554,0.057525,-0.124859,-0.872305978657873,0.2396518402132936,-0.3972312716757316,-0.15445579264952605
591,14.834202289581299,0.5846,-0.0766,0.3216,-9.455,-0.44,2.179,-0.225179,0.052209,-0.225291,-0.2865996902135778,0.739857637640163,0.13002810238023568,-0.5946124672308792
592,14.85928201675415,0.5826,-0.0727,0.3138,-9.29,-0.883,2.131,-0.154272,0.057009,-0.293908,0.5130924842833399,0.2213479391983089,0.825414049885851,-0.0802049788707041
593,14.883516311645508,0.5909,-0.069,0.3255,-9.399,-0.863,2.264,-0.229938,0.072601,-0.367064,-0.07494928937775136,-0.6470346700571428,0.10346930354559714,0.7516800136957238
594,14.909391403198242,0.5834,-0.0665,0.3133,-9.509,-0.693,2.321,-0.192442,0.081928,-0.470368,-0.5992852086015905,0.3906528684129724,-0.586030690538685,-0.38054645563822687
595,14.935225486755371,0.5889,-0.0592,0.3242,-9.514,-1.1,2.217,-0.234893,0.09517,-0.519122,0.770235231109722,0.046023020888918326,0.6042321392568523,-0.19880415537583485
596,14.964595794677734,0.5869,-0.0516,0.3149,-9.679,-1.219,2.134,-0.257322,0.094246,-0.574907,-0.3018066784860141,-0.6656676430370604,-0.6255779510605377,0.27285810411571765
597,14.991091966629028,0.595,-0.0468,0.3255,-10.39,-1.845,2.601,-0.271375,0.112522,-0.558072,0.29676087921265826,0.2542695551521439,-0.13579726166382206,-0.9104059960348834
598,15.009763479232788,0.587,-0.0399,0.3152,-10.647,-1.559,1.86,-0.410703,0.187449,-0.575106,0.39736190307357644,-0.9172791182422801,0.017902900961567214,-0.019545417866368472
599,15.03331470489502,0.5927,-0.0313,0.3251,-11.222,-2.15,1.764,-0.367489,0.192802,-0.642329,-0.14414715120294616,-0.3511838521542515,-0.36733860916620636,-0.8490900111307474
600,15.061168432235718,0.5891,-0.0218,0.3154,-12.006,-1.46,1.754,-0.4702,0.216221,-0.673491,0.11545531027896203,-0.7568289123679384,0.1999180185704578,-0.6114841409089972
601,15.090306520462036,0.5935,-0.0148,0.3296,-12.703,-1.184,2.034,-0.388446,0.216024,-0.674397,-0.1699111393891336,-0.6758692627352652,0.24957691049673472,-0.6723409180974189
602,15.109505891799927,0.5868,-0.008,0.3201,-13.213,-2.666,1.72,-0.605371,0.213416,-0.577889,-0.5624959998069206,-0.6990610067330267,0.166741218509875,-0.40879007463056427
603,15.133574724197388,0.5894,-0.004,0.3283,-12.852,-0.006,1.608,-0.898562,0.233204,-0.50543,-0.4391953617158746,0.12876649330329806,0.5981349062502898,-0.6578459229748186
604,15.160678148269653,0.584,0.0028,0.3181,-12.538,1.573,0.936,-1.021344,0.242967,-0.622451,-0.21652736093969552,-0.4335760653909441,0.6596924868892848,0.574398398523559
605,15.183590412139893,0.5882,0.0085,0.3268,-12.744,1.568,0.728,-0.919544,0.217757,-0.820723,-0.6886326155792502,0.5227524394648476,-0.430414797651622,-0.25934168534299434
606,15.212414026260376,0.5766,0.0196,0.3155,-14.665,-0.514,2.048,-0.585289,0.156558,-1.188493,0.7331967922855738,-0.15977027066966454,0.565465553058794,-0.34226398100910294
607,15.23456621170044,0.5764,0.037,0.3207,-12.993,-0.011,3.642,-0.018824,0.226438,-1.20622,0.06185738116385586,-0.8912302503556633,-0.23093308534255264,-0.3854247207181974
608,15.259405136108398,0.57,0.0581,0.3125,-13.054,-4.479,3.656,-0.601273,0.276624,-1.426566,0.3266978565468083,-0.8654971558228951,0.09471087478685977,-0.3677132496760324
609,15.28657865524292,0.5687,0.0751,0.3208,-12.886,-8.571,3.471,-1.47583,0.213736,-1.76527,-0.6489350337926405,0.2822716332301104,-0.644524076245956,-0.28947324941943714
610,15.31636929512024,0.5556,0.0971,0.3093,-13.242,-8.913,2.443,-1.77431,0.243962,-2.200693,0.804268453425448,-0.06686503746020302,-0.5830036969255413,-0.09374439162550129
611,15.334716081619263,0.5505,0.1288,0.3209,-11.085,-5.693,0.792,-1.695936,0.422683,-2.30737,0.5864656090165314,0.3366125107289941,0.5288046130922246,-0.5129481340583806
612,15.362892150878906,0.536,0.1591,0.3165,-8.861,-3.511,-0.702,-1.082029,0.512075,-2.133216,0.3576638656795411,0.5151978144193724,-0.34323357615148065,0.6991698530449769
613,15.391064167022705,0.529,0.182,0.3347,-7.733,-3.15,-1.132,-0.180433,0.47893,-1.765806,0.8033801736776129,0.3438291370549913,0.4842365792468521,-0.04332154629114221
614,15.411851406097412,0.5101,0.2042,0.3294,-6.254,-2.749,-0.789,0.483096,0.495511,-1.305388,0.2444163237101176,-0.6074040875537047,0.7205899030977806,-0.22819098729050138
615,15.437170505523682,0.4997,0.2269,0.3365,-3.952,-2.999,0.085,1.250459,0.31214,-1.073406,0.18014220175446688,-0.6820770000645733,-0.18552027595273557,-0.6840336105341506
616,15.461180925369263,0.4873,0.2443,0.3217,-2.181,-3.788,0.438,1.889756,0.000715,-0.838297,0.17512389036461856,-0.31179796358157186,-0.9147873803025396,0.18782359215275013
617,15.487913608551025,0.4838,0.2608,0.3192,-3.07,-4.365,-0.226,2.269191,-0.097943,-0.323259,0.43134638615606885,-0.17261623766362483,0.319509357360393,0.8258678466946774
618,15.518332481384277,0.4724,0.268,0.2986,-2.853,-3.716,1.347,1.829958,-0.009072,0.537867,0.04713066571062853,0.48517200831141377,0.8338252336169476,-0.2590797222562682
619,15.53604531288147,0.4734,0.2644,0.2997,-3.013,-3.354,1.658,1.153048,-0.00421,1.114389,-0.5958696743675791,-0.23700280621106412,0.43880629876754373,-0.6294585237957186
620,15.561442375183105,0.4734,0.251,0.285,-3.586,-1.823,1.023,0.696525,-0.060288,1.500193,0.20583258489750733,-0.5546156811830274,0.6265261917904936,-0.5074439123497281
621,15.587510585784912,0.4793,0.2393,0.2914,-4.018,-2.181,0.812,1.030344,-0.054439,1.860082,0.13957427420176965,0.8435452338333637,0.1846193608662605,-0.48462991246042436
622,15.614398717880249,0.4756,0.2174,0.279,-4.064,-3.833,1.251,1.061279,-0.089085,2.199109,-0.4118414482689018,0.5317877465241465,0.5444208057129064,0.501192977246742
623,15.636496782302856,0.4815,0.1892,0.2845,-4.477,-3.385,1.651,0.842747,-0.071477,2.459444,-0.5213945251886823,0.3186356339480611,-0.6939171955764888,-0.38091732379224624
624,15.662124633789062,0.4819,0.1684,0.2765,-4.744,-3.373,0.937,0.925601,-0.093829,2.453744,0.5931825561960238,0.14564379005319747,-0.7902501722918158,-0.049264659102105535
625,15.685566186904907,0.4883,0.147,0.283,-5.025,-5.512,1.49,1.330208,-0.15373,2.448185,0.6028805598716468,-0.10278742189708656,0.7895196067113234,-0.051269552826188364
626,15.711915493011475,0.4794,0.1242,0.2736,-5.774,-6.983,2.245,0.84216,-0.040694,2.497547,-0.20919485480014394,-0.5759923592118308,0.21889627006917692,-0.7593120161070401
627,15.75008225440979,0.4782,0.0985,0.2784,-6.509,-7.5,1.596,0.337987,-0.011835,2.197754,0.6892750971207929,0.062428570774695935,0.7055567494232082,-0.15228981378774603
628,15.762150526046753,0.4737,0.0847,0.2745,-7.503,-8.189,1.601,0.367072,0.008388,1.650211,0.13709648483499903,0.1900247042601045,0.024929676835640464,0.9718403556292655
629,15.78808307647705,0.4751,0.0748,0.2839,-8.261,-8.089,1.506,0.344864,0.092257,1.044251,0.018759605082278447,0.6536832120175547,0.08382437532575679,0.7518775230347136
630,15.812823057174683,0.4631,0.07,0.2786,-7.569,-7.79,1.481,0.403632,0.124058,0.423608,-0.08144943257135341,0.9166361751551916,0.25793801271076355,0.29429932709655954
631,15.835650205612183,0.4636,0.0734,0.2889,-15.677,-18.654,11.055,0.407774,-0.807832,-0.992374,-0.4031776061348684,0.7130167542685213,0.4122378089920412,0.3988921093242901
632,15.860389709472656,0.4606,0.0941,0.2761,-10.477,3.364,-7.344,-0.535977,0.662791,-0.991704,-0.14502609103498298,0.8793663542450825,0.3998066942991646,0.21409543464165517
633,15.88748550415039,0.4659,0.1062,0.2924,-6.109,-2.422,8.508,0.054928,-0.160919,-0.951597,-0.5389792042546693,0.1614525803928509,-0.15614493949378,0.8118209405626201
634,15.91497802734375,0.4597,0.119,0.2806,-5.999,-7.735,-0.343,0.367706,-0.04995,-1.037537,-0.3972740446216478,0.7016627672538106,-0.23993917022927724,-0.5406217615943403
635,15.938520669937134,0.4593,0.1344,0.2851,-11.832,-3.673,1.969,-0.147057,-0.077866,-0.662037,0.7893269987536136,0.10784007967608078,0.46357548017689587,-0.387854586711089
636,15.963061094284058,0.4533,0.1404,0.2776,-8.736,-4.478,2.825,-0.120123,-0.105566,-0.55222,0.706329359270833,-0.7033097856190574,0.060241807196386894,0.053151729513191824
637,15.98620343208313,0.459,0.146,0.2885,-8.864,-4.233,2.356,-0.204375,-0.062072,-0.351836,0.36846824163705844,-0.8518999666081603,-0.36686116227434173,-0.06253390610403917
638,16.013182878494263,0.4515,0.1488,0.2784,-8.866,-4.685,2.597,-0.019911,-0.017895,-0.18917,0.25984562970090813,-0.7785981363960404,-0.5116860810994981,-0.2538553626279918
639,16.041672706604004,0.4546,0.1509,0.2847,-8.667,-4.935,2.419,-0.029495,0.098261,0.023467,0.19937798825435774,-0.7314140884080448,-0.5741878332728236,-0.30917661813166625
640,16.062549829483032,0.4518,0.1488,0.2822,-8.901,-3.733,2.436,0.057533,0.12918,0.168171,0.09796367375548229,-0.723826962576158,-0.6369787235079662,-0.24644624702004372
641,16.085282564163208,0.457,0.1487,0.2909,-9.003,-4.194,1.992,0.150708,0.095063,0.256648,0.07132543138452802,-0.7679042399575778,-0.6358041057385602,-0.03144678392102194
642,16.113901615142822,0.4496,0.1425,0.2827,-8.924,-3.909,1.716,0.089541,0.026448,0.361964,0.2531361291612657,-0.8610015534646757,-0.35195544550444163,0.2659432071409915
643,16.137486934661865,0.4527,0.1379,0.2859,-9.066,-3.696,1.387,0.008531,-0.051461,0.44175,0.6904138402635464,-0.6281853788407626,0.2820391784914199,0.221733535531085
644,16.162431478500366,0.454,0.1317,0.2821,-8.967,-4.031,2.012,-0.117358,-0.097017,0.519845,0.6815725154116572,0.2538659316483436,0.5212531783896168,-0.4464371389148388
645,16.195640563964844,0.4589,0.1224,0.2898,-8.953,-3.415,2.241,-0.237753,-0.095591,0.597925,-0.31694015408480164,0.7000266623741519,-0.2540246622210419,-0.5873526042144469
646,16.217484712600708,0.4545,0.1144,0.2792,-9.353,-2.779,2.108,-0.260233,-0.087082,0.647091,-0.6638836314301247,-0.016750077640364958,-0.5215018030410963,0.5357367154144633
647,16.24323081970215,0.458,0.103,0.2859,-9.541,-3.335,2.464,-0.243147,-0.08409,0.645237,0.26884079942179134,-0.015280995257670016,0.28625706448758026,0.9195368447110429
648,16.26209282875061,0.4586,0.096,0.2769,-8.811,-2.65,2.4,-0.385912,-0.041711,0.675038,0.47002132519030326,0.8054574000923514,0.108361586619807,0.34434880143258717
649,16.28645396232605,0.4647,0.0878,0.2863,-9.192,-1.721,2.384,-0.327659,-0.005942,0.648044,0.2876097547944651,0.6709479299179877,-0.5108479081638407,0.45403074676773025
650,16.315675735473633,0.4572,0.0767,0.2748,-8.842,-2.007,1.791,-0.189721,0.010217,0.596601,0.5514806171219938,0.5289484422937618,-0.47848335291717736,0.43259259738798556
651,16.33932590484619,0.462,0.0661,0.2815,-9.294,-1.752,2.241,-0.123268,0.016566,0.51789,0.3442819942878089,0.5184361399742135,-0.7484337014974345,0.22921795662795674
652,16.364739418029785,0.461,0.0616,0.2758,-9.185,-2.154,2.126,-0.193501,0.027446,0.475259,0.26032554508858974,-0.04476090935485927,-0.7949488508204099,0.5461532716622363
653,16.39012050628662,0.4654,0.0558,0.2841,-9.151,-1.561,2.422,-0.317932,0.052583,0.403127,0.6884189500202647,-0.3801667519272274,-0.25116112126756146,0.564332066380885
654,16.421058654785156,0.4604,0.0505,0.2754,-9.446,-1.23,2.08,-0.318176,0.061239,0.32396,0.9482826438900634,-0.19122748572614773,0.2139446268119558,0.13571946307740748
655,16.443309545516968,0.4622,0.045,0.2832,-9.193,-0.816,1.847,-0.272259,0.034622,0.210873,0.8829112861218397,0.11289833108884553,0.35788472945802596,-0.28220586120204527
656,16.462284803390503,0.4601,0.042,0.2772,-9.153,-0.953,2.092,-0.117615,0.032759,0.086447,0.7717280269598583,0.2507201389560829,0.3713322921311563,-0.45131761891943484
657,16.487863779067993,0.4653,0.0409,0.2875,-9.152,-2.211,2.192,-0.100765,0.049145,0.035098,0.7420681114361759,0.26904681708299577,0.4053004372534697,-0.46117272661032593
658,16.51796817779541,0.4585,0.0396,0.2772,-9.607,-1.427,1.993,-0.344291,0.087426,-0.037592,0.8064945343114261,0.0012042872608158117,0.5506052270706427,-0.21540427047873353
659,16.546430349349976,0.4611,0.0385,0.2826,-9.497,1.275,2.179,-0.283889,0.059877,-0.230971,0.5488699868041973,-0.6699908636024188,0.3258918102193338,0.37900990528851786
660,16.56510090827942,0.4617,0.0447,0.2821,-9.518,-0.793,2.223,-0.049307,0.052957,-0.459279,-0.3520555955125194,-0.6322945301038423,-0.6696108050040084,0.16697860548875926
661,16.594135284423828,0.4664,0.0512,0.2884,-9.274,-1.822,2.192,-0.14459,0.093183,-0.55349,0.16170292980561357,0.2207565539765296,-0.2775947503253247,-0.9209016565087225
662,16.617345809936523,0.4591,0.0577,0.2827,-9.328,-1.263,2.408,-0.128675,0.119441,-0.597459,0.628173231205872,-0.7524580033047322,0.08269796297660262,-0.1799066196073679
663,16.63919234275818,0.4633,0.065,0.2915,-9.866,-2.696,1.94,-0.149143,0.140919,-0.582099,0.005531781987497486,-0.6107742905324307,-0.6096994109766953,-0.5051641254753939
664,16.664223194122314,0.462,0.0731,0.2897,-9.771,-2.497,2.138,-0.232254,0.212989,-0.532549,0.3684471266592161,-0.49247435468993794,-0.1872694701389148,-0.7659281104537076
665,16.687146425247192,0.4662,0.0812,0.2989,-10.719,-3.076,1.813,-0.299053,0.201255,-0.505132,0.20472552626491206,-0.7011395598380312,-0.1890719225166986,-0.6563098236667848
666,16.714630603790283,0.4577,0.0842,0.2903,-10.95,-1.77,1.646,-0.459449,0.207882,-0.480816,0.13349002512071229,-0.7313552066614601,0.08416091319061675,-0.6634884441897735
667,16.748952627182007,0.4631,0.0896,0.3033,-12.599,-1.741,2.158,-0.292667,0.231793,-0.576457,-0.3208678483001172,-0.8064083660940453,-0.12000869682269455,-0.48202415261862536
668,16.763296365737915,0.4697,0.0983,0.304,-13.54,-1.767,2.406,-0.444179,0.168064,-0.558079,-0.2684062326891584,-0.06588859838330274,0.12514922237278192,-0.9528664434201601
669,16.79443860054016,0.4772,0.1036,0.3173,-14.25,-1.762,1.389,-0.699162,0.213655,-0.530251,0.27810980419618286,-0.48830243716987076,0.8187092146987842,-0.11802918465881777
670,16.81459403038025,0.4736,0.1088,0.3133,-13.921,1.237,1.157,-0.80672,0.291527,-0.578032,-0.814168949082658,-0.3784205626990766,-0.37463105093999494,0.23147003207272704
671,16.83797550201416,0.4786,0.1166,0.3245,-13.363,1.846,1.442,-0.762331,0.336002,-0.729325,0.40388111459356635,0.591473074434413,0.36031533182393793,-0.5976725768732972
672,16.863247394561768,0.4841,0.1285,0.3241,-12.329,0.32,0.697,-0.93393,0.310969,-0.75616,0.23903796158749832,-0.8318457253972753,-0.24676298608503544,0.43589169613193046
673,16.89374589920044,0.4956,0.1357,0.3434,-13.245,-3.061,2.443,-0.841737,0.165138,-1.084331,-0.08933764336488464,-0.3541503355843466,-0.45676806934315406,-0.8111468770278482
674,16.915011405944824,0.4965,0.1502,0.3371,-12.759,-0.972,3.135,-0.307614,0.195154,-1.136993,-0.14426956102691968,-0.8081450794732772,-0.09618611773938049,-0.5628819192676705
675,16.939869165420532,0.5048,0.1663,0.3503,-13.436,-5.164,3.008,-0.850719,0.34153,-1.457515,-0.39135403092926824,0.26868412479765486,-0.25779290814883293,-0.8415424410362788
676,16.96457862854004,0.5086,0.185,0.3553,-12.36,-9.103,2.227,-1.852048,0.2915,-1.957258,0.8914730383486179,-0.08368326787109706,-0.0317432238750307,0.4441455845935178
677,16.98924732208252,0.5128,0.2053,0.3717,-12.187,-8.542,1.773,-1.80647,0.389302,-2.558172,0.8279908011055284,-0.37848576527375777,0.25635909706157645,-0.32474570377995227
678,17.015679359436035,0.5058,0.2307,0.377,-10.073,-6.491,-0.046,-1.70867,0.551154,-2.607045,0.0655567536401006,0.4346218437071693,-0.538571165668423,0.7188513507918781
679,17.04091477394104,0.5012,0.2563,0.398,-7.638,-4.149,-1.196,-1.675142,0.827218,-2.225064,-0.04031109442763181,-0.6424872255826544,-0.3786897304888973,0.6649656146383782
680,17.065351724624634,0.4916,0.2805,0.4117,-5.312,-0.804,-1.265,-0.799466,0.896583,-1.892153,-0.6919647155028761,0.5382481381201403,0.43453451386534114,0.2065273119203313
681,17.09466576576233,0.4877,0.2999,0.4304,-4.158,-0.191,-1.186,0.316525,0.651479,-1.464847,-0.5607837741877467,-0.325455090668206,0.17181001943415114,0.7416750365139255
682,17.117130279541016,0.4766,0.321,0.4241,-3.552,-0.613,-1.291,1.238102,0.49217,-0.967783,-0.06508596862202903,-0.6076441695710375,-0.39357370028411587,0.6867547759713982
683,17.143614768981934,0.4757,0.3403,0.4251,-1.907,-1.288,0.041,1.784011,0.37011,-0.316397,0.16824671707733616,-0.0792289988742269,0.10806544080154569,0.9765949356997784
684,17.166670083999634,0.4771,0.3547,0.4139,-1.006,-1.146,0.66,1.953137,0.19732,0.292855,0.08943111940038855,-0.12631704208296637,0.9449144038187789,0.28841437068565984
685,17.191534280776978,0.4834,0.3586,0.4083,-1.017,-0.753,0.541,1.979207,0.066332,0.849563,0.42431048766459234,0.36072963688229054,0.5162371687088211,-0.6506411643725799
686,17.216708183288574,0.4897,0.3544,0.3894,-1.493,-0.922,0.718,1.894963,-0.01499,1.481308,-0.7195030671388991,0.6509809982372604,0.0350603036392758,-0.23939476063702525
687,17.24591588973999,0.5077,0.3366,0.3859,-2.557,-0.817,1.043,1.686138,0.008872,2.273925,-0.21469311988185355,-0.22367420245055342,0.7229753565390915,-0.6174004772193479
688,17.26728868484497,0.5248,0.3131,0.3785,-3.804,-1.126,1.223,1.47696,0.049915,3.018069,-0.43468038772638723,0.8529231740738088,-0.22017691170086265,0.18734232625802333
689,17.29308581352234,0.5439,0.276,0.3854,-5.164,-1.758,1.211,1.194441,0.035785,3.52534,0.2642694634533296,0.6429225353502932,0.18059529223901477,-0.6958430890983579
690,17.316121101379395,0.5541,0.2276,0.3807,-7.243,-1.364,1.378,1.147934,-0.034033,3.980603,0.5733096925237454,0.604199861694952,-0.0056769743703664055,-0.5533771729554151
691,17.344371795654297,0.5712,0.1644,0.3931,-8.875,-2.12,1.399,1.066045,-0.061755,4.371312,-0.8606922625999937,-0.06975902115500941,-0.14350566515907032,-0.4834755755312273
692,17.365655660629272,0.5756,0.1039,0.3969,-10.24,-3.254,1.909,0.779516,-0.133963,4.775215,0.14543147137773466,0.9111577679765439,-0.38511199528574536,0.01816480321781424
693,17.390735864639282,0.5763,0.0398,0.4117,-11.999,-3.05,2.358,0.227741,-0.178385,5.137557,-0.48684165587496564,-0.7552674023602051,0.1352707010677831,-0.41744243970830264
694,17.4145085811615,0.5607,-0.0339,0.4108,-14.116,-2.176,2.402,-0.154572,-0.256826,5.255777,-0.5045196834383654,-0.1001505914404845,-0.7783759971669402,0.35994521123602163
695,17.447149991989136,0.5407,-0.1175,0.4207,-15.399,-2.353,1.621,-0.488404,-0.222201,5.008533,0.6514560804792985,0.06202692228046484,-0.12605974731376848,-0.745564602315689
696,17.46612858772278,0.5176,-0.1816,0.4193,-16.781,-2.706,0.529,-0.723937,-0.144436,4.409502,-0.05529762865375902,-0.6692071021605577,-0.05030292361645868,0.7393061899908431
697,17.49451994895935,0.4938,-0.2327,0.4259,-13.742,-3.451,2.017,-0.211792,-0.082339,3.383851,-0.03035263276541214,0.028772659380112937,-0.47267712423064134,0.8802426869820927
698,17.518601179122925,0.4689,-0.2628,0.417,-11.875,-4.532,0.103,0.14768,-0.589244,1.903229,-0.058084081353570335,-0.1344319015350682,0.5711615354010876,-0.8076687463442235
699,17.540934324264526,0.4631,-0.2786,0.426,-11.122,-4.702,0.224,0.431904,-0.341854,0.22611,-0.22170800524926293,-0.7236559339828799,0.18412700160819825,-0.6271083613686977
700,17.56470799446106,0.4696,-0.2701,0.4256,-11.002,-2.635,1.309,0.362075,-0.031288,-1.193308,0.22184535601367136,-0.6271282787219361,0.21226728513241672,-0.7158473019471
