,time,magX,magY,magZ,linear_accX,linear_accY,linear_accZ,angular_velX,angular_velY,angular_velZ,orientationX,orientationY,orientationZ,orientationW
0,0.0,0.7435,-0.0659,0.1098,-9.696,0.055,1.521,0.027805,-0.005573,-0.024299,0.008038432756998865,0.7319929247689269,0.5629538695668634,-0.3836726240256639
1,0.0228121280670166,0.7358,-0.0618,0.0999,-9.624,-0.001,1.559,0.040007,-0.024616,-0.034164,0.1336897113220548,0.6403664965860525,0.6864376861585378,-0.3175863884961754
2,0.046137094497680664,0.7428,-0.0656,0.1108,-9.51,0.178,1.5,-0.049451,-0.027952,-0.033362,0.2752825672918213,0.4945705799692672,0.8037999903372284,-0.1830984028001297
3,0.07040047645568848,0.7369,-0.0618,0.098,-9.67,0.384,1.386,-0.070579,-0.010052,-0.02952,0.37154346052409043,0.323634663848416,0.870163778526281,0.005573135416599789
4,0.09649348258972168,0.7446,-0.0632,0.1106,-9.72,0.112,1.551,0.012906,-0.005879,-0.042495,0.39728656849408606,0.12360566146561995,0.8849147013325349,0.20931076014718186
5,0.12504053115844727,0.7361,-0.0613,0.0994,-9.723,-0.238,1.486,0.032873,-0.011003,-0.063917,0.31518977059733155,-0.1607280988962962,0.8038703306881975,0.4781363593947149
6,0.1465623378753662,0.7447,-0.0616,0.1109,-9.695,-0.161,1.461,-0.03439,-0.013554,-0.094576,-0.04235941481749983,-0.46422644424380444,0.4340059579169907,0.7709334062898222
7,0.18897414207458496,0.7375,-0.058,0.0978,-9.748,-0.204,1.42,-0.101586,-0.00144,-0.112532,-0.6402938326083839,-0.3389288986225318,-0.1896723454478591,0.6627031092234987
8,0.24332380294799805,0.7439,-0.0597,0.1064,-9.651,-0.132,1.572,-0.060293,0.003672,-0.125004,-0.84365554556702,0.3382468331663178,-0.41691481092216415,0.004054715860209307
9,0.24594783782958984,0.7364,-0.0583,0.0975,-9.592,0.026,1.695,-0.029302,-0.001655,-0.121041,-0.32832061992194794,0.8142162018324273,0.081460727220668,-0.4718280376666101
10,0.2813539505004883,0.745,-0.0581,0.1109,-9.499,0.17,1.731,-0.019943,0.007409,-0.081471,0.19531302024308422,0.6921155662966159,0.6054286224467514,-0.3410059385636389
11,0.2831096649169922,0.7383,-0.054,0.0984,-9.617,0.055,1.78,-0.022782,-0.015155,-0.054074,0.41948942394045186,0.3950732910678471,0.8158627544713277,-0.0481007666611048
12,0.297762393951416,0.7453,-0.054,0.1069,-9.71,0.047,1.622,-0.018102,-0.019898,-0.035318,0.47334716524642745,0.1712154400798396,0.847850074198611,0.16666729107070669
13,0.32050156593322754,0.7389,-0.0529,0.0973,-9.657,-0.217,1.659,0.000946,-0.014316,-0.028026,0.46732997650686414,0.011716092685297191,0.8265896163391504,0.31339277654499187
14,0.34744930267333984,0.7456,-0.0532,0.1109,-9.705,-0.494,1.569,0.011329,-0.015175,-0.036937,0.41646517045585796,-0.15617272169921936,0.7639540746647828,0.46748370516768467
15,0.3787517547607422,0.7391,-0.0519,0.0978,-9.753,-0.553,1.566,0.022617,-0.018682,-0.053506,0.27210090912401474,-0.363196710009861,0.6067517547949672,0.6526113339079591
16,0.3970770835876465,0.7469,-0.0532,0.1067,-9.707,-0.542,1.443,-0.011479,-0.007287,-0.063599,-0.0250603983111104,-0.5253815725205029,0.2949707476395102,0.7977082409812251
17,0.42364025115966797,0.7395,-0.0483,0.0968,-9.54,-0.367,1.425,-0.023894,0.005129,-0.056077,-0.37643459358056397,-0.5041903711629587,-0.06618169630417545,0.7744088387000083
18,0.4480278491973877,0.7465,-0.0489,0.1088,-9.604,-0.227,1.507,-0.051378,0.031018,-0.038255,-0.639333708141227,-0.3264185832582898,-0.3214971826723243,0.6175296589410079
19,0.4798460006713867,0.7397,-0.0478,0.0981,-9.656,-0.132,1.653,-0.037905,0.020555,-0.030411,-0.7724924301067337,-0.1178785114340799,-0.45131829895381936,0.4308966175305965
20,0.49952077865600586,0.7459,-0.0508,0.1064,-9.53,-0.081,1.509,-0.027501,0.022469,-0.015971,-0.8177996723278461,0.0352887328186193,-0.4929415264135003,0.2949017680748152
21,0.5256173610687256,0.7392,-0.0483,0.0979,-9.6,-0.209,1.536,-0.007438,0.021105,-0.015367,-0.8317428131389519,0.15072185120979914,-0.4970756804890363,0.19596577309814917
22,0.5490109920501709,0.7465,-0.0489,0.1099,-9.652,-0.258,1.598,-0.010348,0.016532,-0.012015,-0.8291016580586442,0.25455896102790376,-0.48710294639232576,0.10257141697722663
23,0.5745162963867188,0.7392,-0.0473,0.0994,-9.683,-0.296,1.614,0.006241,0.016925,-0.01144,-0.8174801231966624,0.33362430867781434,-0.46825889517154595,0.03398052280856123
24,0.6111493110656738,0.7462,-0.0492,0.1083,-9.696,-0.549,1.571,0.034882,0.010758,-0.020572,-0.7944043999748519,0.42345604544337945,-0.43169215969405395,-0.05699566770144365
25,0.629086971282959,0.7382,-0.047,0.1005,-9.716,-0.523,1.585,-0.023955,0.010308,-0.020146,-0.7332792085592418,0.5452792477980942,-0.3652989135933835,-0.17756364476708206
26,0.6519198417663574,0.7442,-0.0478,0.1112,-9.74,-0.295,1.528,-0.084344,0.014048,-0.01026,-0.648488384316927,0.6512304502339326,-0.29440396741470687,-0.26208399429307244
27,0.6740381717681885,0.7372,-0.0462,0.1021,-9.751,-0.294,1.415,-0.061597,0.025028,-0.00521,-0.578917363842203,0.7214427167937472,-0.23330176304420908,-0.29990895216334384
28,0.7035796642303467,0.7426,-0.0495,0.1104,-9.656,-0.404,1.439,-0.019497,0.031927,-0.007243,-0.5080246268679603,0.7800713020790216,-0.1564091212706225,-0.3300544333163258
29,0.7246139049530029,0.7345,-0.0484,0.1026,-9.608,-0.287,1.606,-0.027847,0.027921,-0.004481,-0.4437008464297898,0.821907375140039,-0.08252139680393386,-0.34754574466885174
30,0.7496347427368164,0.7416,-0.0473,0.1133,-9.562,-0.092,1.529,-0.028801,0.027349,0.003133,-0.40163354004057006,0.8468436513964991,-0.03783199713188874,-0.3465762103736165
31,0.7737751007080078,0.7333,-0.0457,0.1028,-9.679,-0.144,1.585,0.024491,0.01771,0.015484,-0.4500166961384881,0.8320964612086962,-0.07403633830406373,-0.31562489295220497
32,0.8014013767242432,0.741,-0.0484,0.1149,-9.615,-0.382,1.593,0.041307,0.015007,0.02061,-0.5564938554289065,0.7746499596660741,-0.15737458650526992,-0.2558618150125498
33,0.8245198726654053,0.7338,-0.047,0.1044,-9.587,-0.464,1.517,0.031411,0.004629,0.017572,-0.6504028931689383,0.6997257019845153,-0.23136702342500964,-0.183927483023073
34,0.8534777164459229,0.7416,-0.0487,0.1154,-9.643,-0.486,1.537,-0.011219,-0.0094,0.009803,-0.7028129645699877,0.6401936160323499,-0.28264796409676496,-0.12773487861865937
35,0.8765537738800049,0.7335,-0.0465,0.1028,-9.678,-0.428,1.417,-0.006317,-0.007523,-0.000143,-0.7168835607600363,0.6169252214843496,-0.3067034489126818,-0.10683738031963826
36,0.9023692607879639,0.7416,-0.0487,0.1143,-9.689,-0.397,1.498,0.024827,-0.013301,-0.004922,-0.7157714151473922,0.6151546722557671,-0.3088307541786807,-0.11781161119867019
37,0.9263870716094971,0.7338,-0.0486,0.1018,-9.653,-0.393,1.559,0.046719,-0.005883,-0.001484,-0.7273443991922349,0.5985513925801164,-0.31294897243270614,-0.12152899266184901
38,0.9510400295257568,0.7403,-0.0484,0.1151,-9.637,-0.293,1.512,0.027148,0.000192,0.005007,-0.7503399451043133,0.5657352127247445,-0.32624815425646025,-0.10244890291456078
39,0.9789011478424072,0.733,-0.0459,0.1036,-9.636,-0.242,1.527,0.002302,0.004243,0.013176,-0.7820792470798744,0.5111916679161651,-0.3530315647756429,-0.049029013982814534
40,1.0016350746154785,0.74,-0.0481,0.1133,-9.626,-0.312,1.485,-0.005759,0.010398,0.018592,-0.8150703676297825,0.4336916245086597,-0.38250277589225096,0.03554570406692445
41,1.0288341045379639,0.7325,-0.0467,0.101,-9.701,-0.42,1.5,0.020927,0.008773,0.012025,-0.8372201816159933,0.3614117918608988,-0.3945427667220307,0.11304817303301629
42,1.0521221160888672,0.74,-0.0492,0.1154,-9.684,-0.396,1.511,0.035015,0.006305,-0.000179,-0.8476592628635667,0.3343245476992635,-0.38997738997944775,0.1327347211248634
43,1.0782513618469238,0.7318,-0.0454,0.105,-9.663,-0.326,1.442,0.02318,0.014628,-0.000684,-0.8515629580829709,0.34163412684466016,-0.3785903369621839,0.12163884476156164
44,1.1028399467468262,0.7395,-0.0484,0.1133,-9.619,-0.245,1.471,0.00357,0.020564,0.007207,-0.8551017814260874,0.34318046711796457,-0.36701776329940394,0.12777351765264233
45,1.130812168121338,0.7328,-0.0465,0.1044,-9.641,-0.201,1.563,0.006305,0.018469,0.020982,-0.8656750162339469,0.2757038089152772,-0.3630431023531434,0.20686682153445698
46,1.1577112674713135,0.7408,-0.0492,0.1165,-9.646,-0.132,1.54,0.027033,0.015537,0.035178,-0.8574808810784157,0.1185584081459658,-0.3366177693517439,0.37061964302979794
47,1.185041904449463,0.7327,-0.0476,0.1034,-9.697,-0.207,1.48,0.031476,0.012546,0.043293,-0.7720239764183391,-0.09564377507809686,-0.2279093352479435,0.5855668903130257
48,1.2050557136535645,0.7423,-0.05,0.1162,-9.722,-0.326,1.413,0.02852,0.0107,0.04055,-0.6136142106804974,-0.2562133770311499,-0.04865912236847782,0.7452949722704248
49,1.2278356552124023,0.7346,-0.0467,0.1039,-9.687,-0.383,1.408,0.005109,0.009749,0.032608,-0.4519595912816843,-0.32793682314983885,0.127194204992612,0.8197631377948031
50,1.2538702487945557,0.7413,-0.0492,0.1175,-9.671,-0.355,1.407,-0.011124,0.011485,0.022642,-0.33610243477926455,-0.33958910268518105,0.24935765937214271,0.842339095842862
51,1.2829627990722656,0.735,-0.0497,0.1044,-9.721,-0.308,1.506,-0.011326,0.006749,0.01435,-0.2652319507492155,-0.33189258074498595,0.32209718829601086,0.8460217068373618
52,1.3053040504455566,0.7426,-0.0505,0.1138,-9.699,-0.227,1.463,-0.008447,0.008483,0.012106,-0.21397984782516888,-0.3208767640611817,0.3736156946991326,0.8436006399267529
53,1.3277981281280518,0.7343,-0.0478,0.1031,-9.693,-0.2,1.466,-0.01553,0.008871,0.014414,-0.15685406219718817,-0.30117773922634294,0.43226304860511383,0.8353666436824985
54,1.3536667823791504,0.741,-0.0522,0.1164,-9.654,-0.142,1.467,-0.027021,0.003695,0.02004,-0.07731813414821527,-0.2675430389571693,0.5066158682234457,0.8159552625613768
55,1.3814270496368408,0.734,-0.0486,0.1063,-9.682,-0.154,1.43,-0.01774,0.004442,0.020772,0.01620452467003204,-0.21329580173515336,0.5947679395649521,0.7749151001290644
56,1.40273118019104,0.7415,-0.0511,0.1157,-9.703,-0.187,1.463,-0.005959,0.00135,0.017572,0.09241260149924846,-0.15090023393526156,0.6701809633733573,0.7207957455579098
57,1.429856300354004,0.7345,-0.0494,0.1047,-9.687,-0.18,1.523,0.0043,0.004558,0.012831,0.14774832708882504,-0.09167492594522081,0.7278621778782128,0.6633119852752374
58,1.461599588394165,0.7402,-0.053,0.1148,-9.634,-0.166,1.453,-0.0049,0.007188,0.011663,0.1835125332744274,-0.03897028911961624,0.7663406486328324,0.6144318326308831
59,1.4825019836425781,0.7338,-0.0489,0.1039,-9.69,-0.156,1.473,-0.005367,0.004075,0.009456,0.20886439074238217,0.009717916510166236,0.7920079749867208,0.5735892222975854
60,1.5027034282684326,0.7407,-0.0527,0.1154,-9.666,-0.174,1.42,0.00795,0.00301,0.009398,0.22923720007909326,0.05350276617283699,0.8147663032921935,0.5298524616639296
61,1.5337576866149902,0.7329,-0.0513,0.1044,-9.643,-0.169,1.497,0.021509,0.001557,0.006766,0.24347758749651002,0.10015116853838252,0.8377300637547813,0.47843155007658733
62,1.5542831420898438,0.7405,-0.0508,0.1186,-9.652,-0.182,1.484,0.008002,-0.005384,0.008574,0.2575782829395004,0.14391617644770982,0.8550980741446372,0.42632012139792647
63,1.5826282501220703,0.7337,-0.0492,0.1034,-9.7,-0.155,1.452,0.000237,-0.003608,0.008872,0.2715691357827095,0.19505320587316363,0.8660457508469299,0.3717111900505702
64,1.6044926643371582,0.7412,-0.0535,0.1172,-9.704,-0.148,1.458,0.011882,-0.00575,0.009736,0.27938907819931225,0.2537996635344617,0.873477611072151,0.30751314887077696
65,1.629502296447754,0.7332,-0.0511,0.105,-9.698,-0.15,1.453,0.016499,-0.004898,0.008885,0.278245197856879,0.31560480201328245,0.8756504433450867,0.23708546957858062
66,1.6614885330200195,0.7402,-0.0514,0.1159,-9.688,-0.153,1.538,0.006514,-0.002742,0.011434,0.2672244183429245,0.38899752596816256,0.8677103235156324,0.15604752319832166
67,1.6823594570159912,0.734,-0.0494,0.1055,-9.678,-0.173,1.462,-0.006378,-0.003356,0.013783,0.24704528012087085,0.47016016284564527,0.8440249610921616,0.0744306112854917
68,1.7067131996154785,0.7407,-0.053,0.117,-9.674,-0.183,1.412,0.011452,-0.005579,0.008369,0.2192886247086118,0.5368484108874202,0.8146651741563826,0.005190069152521806
69,1.7355780601501465,0.7329,-0.0505,0.1042,-9.682,-0.208,1.457,0.022048,-0.006879,0.003018,0.1949970368706709,0.5737983103544423,0.7943215376787501,-0.042248661821546435
70,1.7557835578918457,0.7399,-0.0524,0.117,-9.671,-0.205,1.456,0.014821,-0.005147,0.001863,0.17855979699008634,0.5943842726990124,0.780690207772975,-0.07312000242282929
71,1.781538486480713,0.7322,-0.0494,0.1039,-9.678,-0.194,1.47,0.001932,-0.004308,0.002002,0.16688859156178043,0.609182643855816,0.769655581902072,-0.09313962464142961
72,1.8076269626617432,0.7404,-0.0524,0.1164,-9.688,-0.221,1.436,0.000103,-0.002893,0.003186,0.1546518461614876,0.6264451296595931,0.7558267505434434,-0.11124400733324293
73,1.8352580070495605,0.7327,-0.0494,0.1028,-9.685,-0.253,1.482,0.001145,-0.002902,0.001609,0.14924132017460537,0.6332646239507312,0.7498512928120294,-0.12010821401222996
74,1.859229326248169,0.7394,-0.0519,0.1159,-9.652,-0.26,1.438,-0.014013,-0.004578,-0.003532,0.15608756894646886,0.631450497639032,0.7503108677053096,-0.11807007095409601
75,1.8918392658233643,0.7322,-0.0489,0.1044,-9.656,-0.254,1.442,-0.018086,-0.002693,-0.006121,0.18008144833923567,0.6093946762761375,0.7666750597789637,-0.09175049429440113
76,1.9104983806610107,0.7402,-0.0527,0.1164,-9.781,-0.311,1.435,-0.028626,-0.009475,-0.010348,0.21257569969853063,0.5763413316515975,0.7873246042419972,-0.05255672062568238
77,1.9312891960144043,0.7316,-0.0502,0.1047,-9.724,-0.336,1.412,-0.024324,-0.012382,-0.015124,0.2628340954018284,0.5102151385015342,0.8187530935559414,0.015560286974813098
78,1.962406873703003,0.7397,-0.0516,0.118,-9.677,-0.244,1.436,-0.061933,0.001297,-0.017143,0.307193064403133,0.42396948838675136,0.8441505760288357,0.11529136606820865
79,1.9837357997894287,0.7332,-0.0505,0.1034,-9.661,-0.234,1.446,-0.075013,0.003286,-0.020062,0.3416336305161629,0.3010636612534331,0.8498364104141165,0.26537748568308006
80,2.0072124004364014,0.7412,-0.0524,0.1162,-9.55,-0.104,1.494,-0.058681,0.004334,-0.014383,0.34563047479524,0.19351897538222573,0.8288040798041773,0.39518828216406104
81,2.032214641571045,0.7313,-0.0524,0.1039,-9.612,-0.096,1.512,-0.028653,0.009749,-0.004182,0.33793147207596486,0.14663950043129906,0.8069220356785038,0.4617098714888926
82,2.059202194213867,0.7394,-0.0514,0.1154,-9.63,-0.084,1.525,-0.005408,0.001679,0.005642,0.3409435156174232,0.16088518520096054,0.8066368904015006,0.45520369438821795
83,2.0844662189483643,0.7319,-0.05,0.1041,-9.635,-0.135,1.619,-0.021621,-0.000509,0.015194,0.3556842822085922,0.2334524408216271,0.8178043371036865,0.38753672790921806
84,2.1099789142608643,0.7396,-0.0535,0.1148,-9.654,-0.186,1.493,-0.036101,-0.004756,0.019998,0.3687216764612171,0.32967640962679223,0.8145416442124204,0.3031166443581476
85,2.1313726902008057,0.7306,-0.0505,0.102,-9.681,-0.144,1.46,-0.019756,-0.000112,0.023805,0.3617195776419722,0.4400467489076204,0.7961273876531285,0.2042033020177492
86,2.1586403846740723,0.7378,-0.0527,0.1143,-9.689,-0.24,1.523,-0.000581,0.002428,0.01892,0.33069242662019893,0.5426174697571943,0.7644943619656516,0.10843048931493382
87,2.184281826019287,0.7313,-0.0532,0.102,-9.669,-0.236,1.491,-0.008359,0.000383,0.02098,0.282001725615579,0.6390022093363587,0.7154730067439693,0.01579809589261555
88,2.207860231399536,0.7386,-0.0535,0.1148,-9.661,-0.203,1.488,-0.022082,0.000404,0.01993,0.22603641326398144,0.7212716511625175,0.6522027209255212,-0.05750092108302868
89,2.2398598194122314,0.7313,-0.0521,0.1041,-9.672,-0.206,1.472,-0.024811,-0.006304,0.016846,0.17049368933350134,0.786127412760102,0.5827136236613424,-0.11567378961557054
90,2.2636044025421143,0.7396,-0.0551,0.1172,-9.687,-0.207,1.488,-0.017125,-0.011267,0.011785,0.12511578445637797,0.8276441387574754,0.5245274081000912,-0.155634887515821
91,2.2837867736816406,0.7326,-0.0529,0.1025,-9.707,-0.165,1.49,-0.017729,-0.008398,0.007127,0.09438184702776932,0.8523397025779734,0.48118774151575316,-0.18184459237460893
92,2.3095500469207764,0.7393,-0.0549,0.1138,-9.676,-0.121,1.484,-0.01274,-0.002304,0.006297,0.07270222661695046,0.8680702053595977,0.45061205726493886,-0.19523646856912463
93,2.335221529006958,0.7295,-0.0543,0.1036,-9.656,-0.072,1.459,0.003369,-0.005565,0.006828,0.035872479753882226,0.8856784957383737,0.4103177953664597,-0.2143036961616086
94,2.373307466506958,0.736,-0.054,0.1156,-9.642,-0.147,1.56,0.015224,-0.011904,0.005483,-0.015409733628412817,0.9009975756252278,0.36123593591543146,-0.23973841459029005
95,2.3849823474884033,0.7287,-0.054,0.1046,-9.663,-0.155,1.466,0.008662,-0.010191,0.005019,-0.06121455462540426,0.9101136965592024,0.3156340291992175,-0.2613828556903168
96,2.4089269638061523,0.7355,-0.0543,0.114,-9.678,-0.215,1.427,0.003577,-0.013394,-0.000532,-0.07907490403996895,0.9121694584615828,0.29518356076885865,-0.27305805985685555
97,2.4359006881713867,0.7274,-0.0529,0.1022,-9.71,-0.182,1.521,0.011611,-0.016643,-0.007671,-0.0637937959962559,0.9066310366410606,0.3065754173887755,-0.2827755796465491
98,2.4587903022766113,0.7336,-0.0551,0.1148,-9.713,-0.233,1.49,0.016405,-0.01028,-0.012819,-0.02188427872418168,0.892619149448405,0.34928570743930376,-0.2841683074541448
99,2.486854314804077,0.7264,-0.0511,0.1038,-9.665,-0.196,1.521,-0.002982,-0.009447,-0.015427,0.04933416062715221,0.8668363695597482,0.41718004209778276,-0.26855476439449455
100,2.5089221000671387,0.7342,-0.0535,0.1145,-9.633,-0.131,1.501,0.004373,-0.011966,-0.014085,0.11479778627361095,0.8347709672002253,0.4779580112408798,-0.2480625729063975
101,2.5364367961883545,0.7264,-0.0508,0.103,-9.658,-0.095,1.498,0.009227,-0.00896,-0.01029,0.1548383443844828,0.8097950638604989,0.5153473178276217,-0.23382511341453313
102,2.5611419677734375,0.7334,-0.0543,0.1137,-9.633,-0.15,1.553,0.022231,-0.010459,-0.002837,0.16330142563756034,0.7995809688339358,0.5266690612466131,-0.23795507682950606
103,2.585190773010254,0.7272,-0.0513,0.1054,-9.655,-0.116,1.533,-0.001991,-0.009023,0.001077,0.15096325726357104,0.8059688594068435,0.5121496911493166,-0.25559144445474746
104,2.61025071144104,0.7339,-0.0551,0.1134,-9.649,-0.14,1.508,-0.003028,-0.008873,0.003172,0.12824579773751485,0.820619271199045,0.4836008790606674,-0.27616519851560983
105,2.636988401412964,0.7267,-0.0521,0.1025,-9.65,-0.251,1.555,0.021293,-0.007841,0.002113,0.0999740885501309,0.8334691137355312,0.4550422757492465,-0.29710426679606167
106,2.663834810256958,0.7355,-0.0535,0.1167,-9.663,-0.288,1.591,0.027873,-0.009084,0.00034,0.06835749486067445,0.8416322158986812,0.429941255038778,-0.3195825140296774
107,2.6852529048919678,0.7275,-0.05,0.1028,-9.646,-0.28,1.548,0.002537,-0.011319,0.001146,0.05789175573982677,0.8427829711089833,0.4194491020652797,-0.3323068747448741
108,2.7129907608032227,0.7331,-0.0535,0.1142,-9.655,-0.2,1.553,-0.026481,-0.008645,0.002049,0.055678796332703465,0.8466961380331622,0.40567002245294576,-0.3397607310471535
109,2.735687732696533,0.7277,-0.0511,0.1028,-9.655,-0.203,1.497,-0.027047,-0.006564,0.0049,0.04435200095911361,0.855696298854113,0.38052214617048,-0.34787877258048827
110,2.769716739654541,0.735,-0.054,0.1153,-9.64,-0.184,1.56,-0.027386,-0.002393,0.009723,0.010403160054376887,0.8711329951076578,0.33404391752348045,-0.3597690095897792
111,2.793975353240967,0.7298,-0.0519,0.1036,-9.695,-0.233,1.612,-0.015962,-0.002416,0.004907,-0.023443281832592977,0.882478404319507,0.29233836591752427,-0.36772348070158134
112,2.8152787685394287,0.7363,-0.0538,0.1132,-9.676,-0.242,1.578,-0.012791,-0.006374,0.002091,-0.03756737853060267,0.8863931672181633,0.2700145281516462,-0.37414970234698225
113,2.8375072479248047,0.7293,-0.0527,0.1001,-9.666,-0.221,1.604,-0.031993,-0.005054,-0.000417,-0.027340733796008057,0.8868100139778802,0.26795859718498893,-0.3755245312608758
114,2.8637096881866455,0.7373,-0.0538,0.1135,-9.685,-0.186,1.502,-0.030306,-0.001178,-0.003119,-0.0017977998735801831,0.8856949670314581,0.27873254902358774,-0.37128070163364546
115,2.886018753051758,0.7298,-0.0529,0.1017,-9.686,-0.17,1.516,-0.016353,0.000299,-0.002853,0.022484986729542994,0.8827319090565788,0.29466849415501195,-0.36530710458122473
116,2.9156672954559326,0.7384,-0.0522,0.1135,-9.628,-0.199,1.589,-0.011828,-0.000479,-0.003189,0.04147705482232991,0.8788954528604676,0.3083312474475861,-0.3615996110505021
117,2.9393861293792725,0.7306,-0.0527,0.1004,-9.673,-0.133,1.568,-0.013817,-0.002233,-0.002348,0.056678496240657864,0.8757474162681369,0.31767243072446566,-0.35907970942562334
118,2.9631760120391846,0.7378,-0.053,0.113,-9.701,-0.158,1.544,-0.020464,-0.000665,-0.002746,0.07452655845852657,0.8724010614635304,0.32682220168348763,-0.35573786490671916
119,2.987541437149048,0.7324,-0.0527,0.1012,-9.669,-0.168,1.529,-0.012004,0.006634,-0.004352,0.10275944759943414,0.8649258861713401,0.3507086165134212,-0.3440162404059191
120,3.0153698921203613,0.7391,-0.0535,0.1108,-9.646,-0.156,1.58,-0.014181,0.006442,-0.005438,0.1384991938772872,0.8525180102405533,0.38417203978939407,-0.3262558188827991
121,3.0399739742279053,0.7311,-0.0527,0.1012,-9.658,-0.135,1.485,-0.00865,0.006033,-0.002646,0.16173259967108525,0.8444348283815488,0.40399681881715477,-0.3123442927371587
122,3.064117670059204,0.7386,-0.0543,0.1148,-9.659,-0.166,1.589,0.009054,0.001472,-0.002276,0.16515145942962706,0.8415350533070647,0.41114827129609977,-0.3090321156675608
123,3.0883524417877197,0.7306,-0.0521,0.1023,-9.643,-0.204,1.525,-0.011095,-0.002531,-0.003706,0.18233026660205168,0.8328098484850347,0.4256484993166028,-0.3033262025883724
124,3.1143972873687744,0.7389,-0.0535,0.1116,-9.666,-0.162,1.55,-0.019077,-0.002098,-0.004294,0.21371567642838135,0.8182790517573619,0.4488225344791077,-0.2886231724023246
125,3.138030529022217,0.7301,-0.0516,0.0985,-9.677,-0.178,1.522,-0.004406,-0.003425,-0.001475,0.23210076097001364,0.808846232246989,0.46116271635036693,-0.28147106136393735
126,3.1629414558410645,0.7389,-0.0538,0.1154,-9.673,-0.217,1.553,0.00524,-0.001222,-0.005826,0.2521420956253003,0.7942902883956936,0.4825322419357512,-0.26961071356017285
127,3.1894285678863525,0.7319,-0.05,0.1012,-9.676,-0.219,1.555,-0.020113,-0.003587,-0.005692,0.2890921681448293,0.7681419117068203,0.5150591595925555,-0.24717965918846052
128,3.2134175300598145,0.7386,-0.0535,0.1138,-9.697,-0.139,1.538,-0.024566,0.001058,-0.001582,0.3143109314776016,0.753337704989475,0.52986176992197,-0.23008138857810856
129,3.2387635707855225,0.7321,-0.0527,0.0996,-9.666,-0.194,1.523,-0.009722,0.001225,-0.002964,0.3264716363554463,0.7457157100020292,0.537787242159773,-0.21933816968724906
130,3.265810489654541,0.7386,-0.0532,0.1132,-9.644,-0.225,1.488,-0.019638,0.004111,-0.00221,0.3455620463446736,0.731843884090718,0.551544110111336,-0.20196657160675835
131,3.2897303104400635,0.7309,-0.0492,0.1007,-9.617,-0.2,1.506,-0.008764,0.007843,-0.0036,0.3649919169164926,0.7154891074753515,0.568942935752667,-0.17652244482468954
132,3.3200318813323975,0.7381,-0.054,0.1116,-9.59,-0.138,1.587,-0.002985,0.005319,-0.003298,0.3817276345517907,0.6982801160292957,0.5851938378006762,-0.15568257698831792
133,3.3459959030151367,0.7298,-0.0521,0.1025,-9.66,-0.189,1.546,-0.011895,0.006101,0.002466,0.38233249874389474,0.6996253084656169,0.5839264648916734,-0.15289268052380223
134,3.3644015789031982,0.7368,-0.0519,0.1145,-9.658,-0.215,1.543,-0.012864,0.000635,0.005805,0.3700036722284714,0.7172828229959445,0.5660624511090094,-0.16785689088290268
135,3.389563798904419,0.7296,-0.0508,0.1039,-9.687,-0.192,1.594,-0.007305,-0.002708,0.001439,0.3580640701121287,0.7323825226226321,0.5493606673458129,-0.1833270831737894
136,3.4143362045288086,0.7365,-0.0535,0.1153,-9.699,-0.224,1.567,-0.003241,-0.00339,-0.000798,0.35314801800573015,0.7382644649999519,0.541113088534289,-0.19351662076897186
137,3.4391019344329834,0.7269,-0.0532,0.1014,-9.667,-0.226,1.567,0.01294,0.001433,-0.001434,0.3536420350534324,0.7358189461031459,0.5437440576952121,-0.19455125113981897
138,3.465862512588501,0.7357,-0.054,0.1148,-9.671,-0.224,1.576,0.011364,-0.002591,-0.00833,0.36357591573034087,0.722723608918769,0.5581021846402122,-0.18440469113364988
139,3.4911000728607178,0.728,-0.0511,0.1022,-9.668,-0.229,1.537,0.017702,-0.001843,-0.007388,0.3853576208580711,0.6947353130603979,0.5850049518049112,-0.1631304851865879
140,3.515523672103882,0.7365,-0.0527,0.1148,-9.663,-0.248,1.574,-0.005509,0.002435,-0.007726,0.4141844627793743,0.6581842767065131,0.6152660661121613,-0.1291989031662064
141,3.542039155960083,0.7282,-0.0513,0.1004,-9.679,-0.222,1.546,-0.00896,-0.000232,-0.007697,0.4440243919285417,0.6185561106294653,0.6420040161532339,-0.08978597116786091
142,3.569531202316284,0.7355,-0.0527,0.1145,-9.636,-0.223,1.511,0.002006,-0.000733,-0.004717,0.4588210577411404,0.5963829087259763,0.6548746221355838,-0.0703554719664441
143,3.591789484024048,0.7273,-0.0494,0.1014,-9.666,-0.238,1.568,-0.00161,-0.000256,-0.001997,0.4677720628033679,0.5806580427846125,0.6639315127960446,-0.056749281286909065
144,3.614759683609009,0.7358,-0.053,0.1132,-9.647,-0.253,1.547,-0.018039,0.001079,-0.001739,0.47850355638878994,0.5658022354627417,0.6702426342131615,-0.040951045794296065
145,3.643346071243286,0.7293,-0.0505,0.0991,-9.659,-0.22,1.549,-0.026788,0.005762,-0.003015,0.4964495358951853,0.5396396658778929,0.6798761309993486,-0.00976400624782131
146,3.667757749557495,0.736,-0.0524,0.1159,-9.651,-0.181,1.601,-0.026951,0.004802,-0.005194,0.5150165640374423,0.5086643510741906,0.6894131555800163,0.026981801766080865
147,3.69281005859375,0.7298,-0.0502,0.1031,-9.636,-0.102,1.503,-0.012142,0.007203,-0.002424,0.5271664264813105,0.48497777694213784,0.6954700711822526,0.05668769489880071
148,3.7171616554260254,0.7366,-0.0516,0.1151,-9.661,-0.139,1.512,0.008051,0.009399,0.004763,0.5235106948896444,0.4905576749740995,0.6942819745998997,0.05711619390183145
149,3.741833448410034,0.7277,-0.0508,0.0996,-9.666,-0.281,1.563,0.018858,0.006817,0.005027,0.5061013091960982,0.5224428480362694,0.6855499121908253,0.030598255847328948
150,3.7664592266082764,0.735,-0.0522,0.1137,-9.634,-0.325,1.566,-0.003822,0.002151,0.004534,0.4918421833127867,0.5490928415761767,0.675693057746981,0.005216297196853292
151,3.790454149246216,0.727,-0.0497,0.1025,-9.702,-0.27,1.516,-0.017996,0.000585,-0.001422,0.49466597476939494,0.5503322373956359,0.6726044289315455,0.006579063020483306
152,3.819648027420044,0.735,-0.053,0.1153,-9.712,-0.246,1.533,-0.010268,0.000554,-0.00246,0.5047942670047323,0.5357826146670556,0.6764963502190461,0.021735361970718292
153,3.841620683670044,0.7265,-0.0494,0.1038,-9.662,-0.206,1.574,-0.006435,0.001999,0.001597,0.5071875416480054,0.5321488999677328,0.6774040252810456,0.026497780911263424
154,3.867488145828247,0.7352,-0.0527,0.1156,-9.701,-0.175,1.521,-0.015149,0.004335,0.001069,0.5051874997911058,0.5414968080415316,0.6716601546712342,0.02096267069478766
155,3.8939900398254395,0.7252,-0.05,0.103,-9.683,-0.221,1.508,-0.0206,0.008876,3.1e-05,0.5116560188099195,0.533939561870378,0.6721981003966357,0.03558618423498955
156,3.9197068214416504,0.7316,-0.0532,0.1153,-9.635,-0.217,1.526,-0.011283,0.009399,-0.000614,0.5195174932317801,0.5197587164310864,0.6757463506008548,0.057613545019410184
157,3.9423580169677734,0.7244,-0.0513,0.1041,-9.637,-0.194,1.535,-0.012467,0.009516,0.000703,0.5245055926311334,0.5094170021314507,0.678025054848979,0.0753009046101572
158,3.9709393978118896,0.7309,-0.0514,0.1169,-9.681,-0.236,1.54,-0.030195,0.013761,0.006275,0.5227083513971725,0.5215001262887515,0.6701825251212309,0.07529263365427724
159,3.9951000213623047,0.7241,-0.0492,0.1051,-9.649,-0.216,1.477,-0.041285,0.018818,0.010344,0.5191050962721738,0.5465975799325712,0.653322688333251,0.07021715990502139
160,4.01832914352417,0.7303,-0.053,0.1182,-9.66,-0.261,1.566,-0.026504,0.010823,0.009678,0.5115274269036937,0.5772346176185522,0.6339655446985493,0.05681175831746332
161,4.04310154914856,0.7217,-0.0519,0.1048,-9.643,-0.325,1.636,-0.044723,0.003897,0.007487,0.5083365246901006,0.6004675785705675,0.6159334242965163,0.04072691476109752
162,4.06791615486145,0.7282,-0.0533,0.12,-9.645,-0.163,1.508,-0.078344,0.005846,0.009025,0.5176702138903433,0.6138494412977367,0.5948958072835531,0.03613020267909672
163,4.093539476394653,0.7202,-0.0497,0.1085,-9.666,-0.095,1.391,-0.04072,0.002247,0.007605,0.5249280065013249,0.6276493201887121,0.5741427555535537,0.029445120182547996
164,4.118454456329346,0.7279,-0.0541,0.1176,-9.689,-0.198,1.548,0.010799,0.008092,0.005578,0.5125239290859365,0.651016985904081,0.5597945391515428,0.011232992245677753
165,4.146914720535278,0.7197,-0.0524,0.1056,-9.692,-0.286,1.511,0.013712,0.007561,0.002426,0.4997132028315411,0.6646476533463364,0.5554457365814206,0.0032008640355977447
166,4.178459167480469,0.7274,-0.053,0.1198,-9.657,-0.236,1.447,-0.008944,0.005811,-0.001254,0.5050477677159962,0.6561562907696331,0.5604702199516391,0.01608747823268819
167,4.196253538131714,0.7186,-0.0513,0.1083,-9.673,-0.24,1.513,-0.01053,-0.000895,-0.00267,0.5191566187240219,0.6355860012059377,0.5702083464350567,0.037003810099568796
168,4.218458414077759,0.7251,-0.0543,0.1173,-9.649,-0.196,1.486,-0.002557,-0.000152,0.000954,0.5258062488815606,0.6266119085892083,0.5736094215029612,0.04309914400925177
169,4.243757486343384,0.7173,-0.0513,0.1072,-9.685,-0.122,1.51,0.007941,0.003454,0.005698,0.5132841988985722,0.6468439329939366,0.5635239998198506,0.023936564854285858
170,4.268774032592773,0.7238,-0.053,0.1197,-9.641,-0.182,1.479,0.009336,0.008237,0.006431,0.48997477778072357,0.6794843154634164,0.5460926265571089,-0.0029369027735056674
171,4.29458475112915,0.7166,-0.0505,0.1074,-9.656,-0.199,1.446,0.012827,0.006206,0.005014,0.4668004752879558,0.7085498142922899,0.5285491551320963,-0.026272943239146307
172,4.319575071334839,0.7233,-0.0527,0.1208,-9.638,-0.193,1.489,0.021344,0.003963,0.002429,0.44979935169068297,0.723793649285163,0.5218219968991898,-0.03879561863470718
173,4.3584771156311035,0.715,-0.053,0.1077,-9.67,-0.169,1.472,0.037311,0.004145,0.002672,0.4251840997403715,0.7435001398290552,0.5129130122124802,-0.05784691266839817
174,4.36942720413208,0.7236,-0.0527,0.1226,-9.655,-0.16,1.472,0.040145,0.002491,0.00566,0.3851054155828375,0.7743409004988372,0.49409015085839936,-0.0892463530243332
175,4.395550489425659,0.714,-0.0505,0.1093,-9.683,-0.221,1.491,0.017005,0.003605,0.007782,0.3424406244571746,0.8069833235530294,0.46564894217721464,-0.12117506706384773
176,4.422155857086182,0.7228,-0.0535,0.1184,-9.645,-0.223,1.502,0.016699,-0.001315,0.00475,0.3071120033538224,0.8321410092532737,0.4375143836534836,-0.1476642211615839
177,4.447411060333252,0.7121,-0.0521,0.1087,-9.673,-0.21,1.483,0.014838,-0.004287,-7.4e-05,0.2886343922938154,0.8418011380376905,0.426873548526837,-0.16074826640351375
178,4.469969034194946,0.7212,-0.0533,0.1218,-9.713,-0.242,1.512,0.013151,-0.006699,-0.005279,0.29205651519091796,0.8358339296575164,0.43606974347455046,-0.16102115635484293
179,4.494394302368164,0.7127,-0.05,0.109,-9.67,-0.233,1.495,0.008122,-0.002088,-0.003395,0.30411867429064743,0.8233988570633286,0.45359324621136976,-0.15420545102536148
180,4.521719455718994,0.7183,-0.0538,0.1221,-9.656,-0.188,1.462,-0.014149,0.004172,0.000287,0.31192867854717127,0.818269850890408,0.4593950006260723,-0.14863103317738124
181,4.545941114425659,0.7114,-0.0508,0.1103,-9.696,-0.266,1.549,-0.013495,0.006436,-0.001375,0.32519590249459257,0.8115383794713109,0.4666751655535464,-0.1336688950406036
182,4.570277690887451,0.7181,-0.0533,0.1244,-9.626,-0.281,1.569,-0.0047,-0.00026,-0.004488,0.34449991987189177,0.7961953333081392,0.4833901122855997,-0.11716140905228323
183,4.597841501235962,0.7096,-0.0495,0.1103,-9.673,-0.213,1.551,-0.009959,-0.003869,-0.004973,0.36838991948792543,0.775002030111323,0.5038356719966391,-0.09904714113341617
184,4.622736930847168,0.7173,-0.0522,0.1207,-9.697,-0.221,1.518,-0.02844,0.004023,-4.4e-05,0.3848533694994388,0.7634729788157787,0.5115005109565962,-0.08581446203426824
185,4.646765947341919,0.7085,-0.0503,0.1097,-9.671,-0.161,1.488,-0.044717,0.008991,8.2e-05,0.4075458299876644,0.7508651533176773,0.5157903600740792,-0.06378261869458146
186,4.681159973144531,0.7158,-0.0533,0.1215,-9.636,-0.174,1.492,-0.030888,0.004861,0.000665,0.4245985697232403,0.742434478935108,0.5160107535745557,-0.04732865171069653
187,4.696858644485474,0.7078,-0.05,0.1113,-9.61,-0.192,1.497,-0.008781,0.009421,0.0033,0.4263236063738888,0.7457192023515636,0.5102597328805837,-0.042261789989828574
188,4.721851587295532,0.7142,-0.0533,0.1217,-9.664,-0.2,1.52,-0.010488,0.005815,0.006716,0.41400025123476786,0.7618513740049125,0.4954666887285132,-0.05195224985290525
189,4.755681037902832,0.7062,-0.0513,0.1108,-9.691,-0.214,1.522,-0.026815,0.002052,0.007691,0.4014076112936931,0.7820846859159608,0.47180480645963147,-0.06793893031844125
190,4.771655082702637,0.7135,-0.0516,0.126,-9.665,-0.203,1.472,-0.023373,0.004706,0.007783,0.3900879487309943,0.8001746127387024,0.4482721102906377,-0.08126559246625426
191,4.801239728927612,0.7036,-0.05,0.1126,-9.698,-0.239,1.46,-0.015239,0.007005,0.006349,0.3762651749852171,0.8175405524215459,0.4262773605253801,-0.0913212743183784
192,4.821029186248779,0.7116,-0.053,0.123,-9.652,-0.205,1.492,-0.018858,0.010301,0.00517,0.3710742908109702,0.8266871245848674,0.4128146533942866,-0.09206699021742061
193,4.845499277114868,0.7049,-0.0524,0.1105,-9.63,-0.231,1.454,-0.021427,0.011656,0.004047,0.3700478560912459,0.8325936700149129,0.40265650879575354,-0.08786410403450476
194,4.879669189453125,0.7103,-0.0538,0.1257,-9.667,-0.223,1.432,-0.022591,0.011292,-0.000411,0.3858177195796547,0.8251988663848899,0.40637953789731424,-0.07104357362782854
195,4.902772426605225,0.7033,-0.0516,0.1142,-9.672,-0.219,1.491,-0.017187,0.013729,-0.003338,0.4117277256039888,0.8060830470243027,0.42300210330870186,-0.04218556465660636
196,4.9243879318237305,0.7126,-0.0535,0.1228,-9.646,-0.191,1.461,-0.016266,0.012507,-0.00466,0.4410722515171328,0.7799334718173568,0.4439789305555474,-0.006462020062172863
197,4.948652744293213,0.7046,-0.0522,0.114,-9.694,-0.157,1.483,-0.018614,0.01626,0.000287,0.45937252060302713,0.7635794999016491,0.4532974754018403,0.021086332992885787
198,4.97284460067749,0.7111,-0.0527,0.1254,-9.694,-0.159,1.52,-0.014042,0.013173,0.004881,0.4625216131956074,0.7639465491718462,0.4487904578852285,0.032350459757594596
199,4.997788667678833,0.7034,-0.0495,0.1145,-9.664,-0.158,1.467,0.002901,0.012102,0.005769,0.4496580627330807,0.7803925530664787,0.43374068622028406,0.025770270752810437
200,5.024969816207886,0.7098,-0.0527,0.1273,-9.65,-0.169,1.43,0.021774,0.010149,0.006802,0.424429165094978,0.803267964486436,0.41771187867692544,0.011715266057214235
201,5.05309534072876,0.7067,-0.0516,0.1148,-9.642,-0.187,1.354,0.025393,0.010189,0.006529,0.38596758533730147,0.834261409615219,0.39358751860610813,-0.011215555858142628
202,5.073945045471191,0.7142,-0.0549,0.126,-9.672,-0.149,1.32,0.047079,0.015972,0.008378,0.33896766957232793,0.8651044628957464,0.3683656124381878,-0.03165379654332029
203,5.10407567024231,0.7036,-0.0508,0.1134,-9.691,-0.258,1.69,0.0513,0.008383,0.003679,0.2816188809714234,0.8936406494337603,0.34547072577411025,-0.05241348293254128
204,5.123143911361694,0.7095,-0.0533,0.1257,-9.653,-0.37,1.429,-0.009279,0.01113,0.005348,0.2586445407824559,0.9057275702963214,0.3305921343515716,-0.05890170314538433
205,5.147990465164185,0.7005,-0.0519,0.115,-9.666,-0.205,1.456,-0.016804,0.01434,0.00217,0.262985947898582,0.9062002451657261,0.32777440691667586,-0.04694086748115801
206,5.173661231994629,0.709,-0.053,0.1278,-9.726,-0.215,1.419,-0.016665,0.001779,-0.001812,0.27819364650071987,0.9003971366390396,0.33244732446762765,-0.03704143400527192
207,5.198216438293457,0.7028,-0.0508,0.1139,-9.656,-0.232,1.415,-0.0033,0.010304,0.00143,0.28150457264634204,0.8995411658988463,0.33259953548950794,-0.030958285235268487
208,5.223912000656128,0.71,-0.0541,0.127,-9.705,-0.187,1.487,-0.030552,0.014506,0.001195,0.2835957240466159,0.901850696251027,0.3252234337977752,-0.021644978235094675
209,5.254668712615967,0.7028,-0.0522,0.1145,-9.66,-0.213,1.423,-0.034862,0.009115,8.8e-05,0.30842167736877557,0.8931480374757395,0.3273400428530721,-0.0033389260571415613
210,5.274237871170044,0.7077,-0.0538,0.1281,-9.656,-0.149,1.396,-0.033864,0.009344,0.002472,0.3212340657239712,0.8907529591856441,0.3214651976498277,0.005288423245434298
211,5.3010382652282715,0.701,-0.0503,0.1168,-9.688,-0.177,1.416,-0.030791,0.005542,0.001062,0.3377287995487978,0.8860437415759942,0.3172285882110044,0.015223954512341847
212,5.325146436691284,0.7085,-0.0535,0.1294,-9.714,-0.214,1.461,-0.038359,0.004587,0.000577,0.3587593059284905,0.8787656034375263,0.31379999001987047,0.024338054324805264
213,5.352652549743652,0.7023,-0.053,0.1155,-9.68,-0.227,1.453,-0.044759,0.005411,0.000975,0.38798116034776153,0.8628761574335542,0.32108239971095837,0.042678434176539035
214,5.377069473266602,0.7098,-0.0535,0.1297,-9.659,-0.193,1.457,-0.04315,0.001294,0.003158,0.40709358035748644,0.8553453373384219,0.31651382313394383,0.049781226283393515
215,5.401160717010498,0.7005,-0.0519,0.1155,-9.69,-0.167,1.364,-0.054174,0.002217,0.00919,0.41149177744320325,0.8637710025105426,0.2881003657404907,0.03965288865594553
216,5.425003290176392,0.7074,-0.0554,0.128,-9.674,-0.145,1.39,-0.022355,0.003447,0.009174,0.3953170837718898,0.8844120758296338,0.24724677644000503,0.02021669965233866
217,5.449980974197388,0.6991,-0.0551,0.1173,-9.686,-0.239,1.446,-0.01562,0.00576,0.005126,0.37762811176060823,0.8993487166190066,0.22023572985283987,0.008069598506129774
218,5.476013898849487,0.7064,-0.0552,0.1294,-9.675,-0.249,1.472,-0.020881,0.008409,0.001817,0.38126553280539466,0.8991107680415452,0.21465430276582173,0.012647157407103732
219,5.500841856002808,0.6987,-0.0514,0.1165,-9.698,-0.195,1.442,-0.035038,0.00669,-0.000269,0.40264174414511816,0.8883941130503875,0.2190515255282093,0.025533408173542722
220,5.524203300476074,0.7056,-0.0554,0.1286,-9.695,-0.152,1.432,-0.016858,0.003754,-0.001477,0.42547729385432415,0.875159651381346,0.22695547508674568,0.03944450958792357
221,5.5534303188323975,0.6984,-0.0535,0.1147,-9.693,-0.186,1.453,-0.010476,0.001145,-0.001599,0.4405392080413905,0.8647794502471695,0.23596091136073294,0.049032202869954286
222,5.577024698257446,0.7053,-0.0554,0.1304,-9.649,-0.196,1.469,-0.013879,0.004594,-0.001925,0.4545515105958366,0.854383856650726,0.2444763765044325,0.060352721901647054
223,5.602432727813721,0.6979,-0.0522,0.1168,-9.679,-0.183,1.448,-0.019832,-4.9e-05,-0.005214,0.47611831678494426,0.8379845404404762,0.25574598927611786,0.07541384073109691
224,5.627451658248901,0.7059,-0.0554,0.1296,-9.692,-0.168,1.433,-0.016089,-0.001694,-0.005593,0.5075805189067567,0.8099041100007676,0.2765238608164399,0.09975922929424748
225,5.650381803512573,0.6984,-0.053,0.1179,-9.696,-0.18,1.403,-0.005878,-0.005507,-0.008829,0.5356144055968808,0.778388115831634,0.30171561256239765,0.12726680158342968
226,5.674899101257324,0.7053,-0.0565,0.1323,-9.69,-0.144,1.447,0.003065,-0.006794,-0.00993,0.560932714480182,0.7425664424798121,0.33042896676603506,0.15737301627248884
227,5.7000017166137695,0.6979,-0.0527,0.1165,-9.669,-0.166,1.406,0.001982,-0.004373,-0.007141,0.5785939545741924,0.71151234966405,0.35331418492537586,0.18479258301202814
228,5.727232456207275,0.7056,-0.0552,0.1304,-9.685,-0.129,1.483,0.001924,-0.00722,-0.002998,0.5857592141762009,0.6959830288987167,0.3655419005835032,0.19716207903764824
229,5.757668972015381,0.6975,-0.0551,0.1147,-9.676,-0.156,1.45,-0.001384,-0.007827,0.003659,0.5802449721486451,0.7058931135990453,0.3632205086778767,0.1819383042282405
230,5.777162313461304,0.7043,-0.0544,0.1309,-9.683,-0.224,1.42,0.002302,-0.002511,0.001982,0.5665781018985894,0.7270246035327745,0.3537375099267308,0.15904167497181243
231,5.800636053085327,0.6961,-0.0505,0.1176,-9.697,-0.225,1.389,-0.002041,-0.008976,-0.002984,0.5671521436758838,0.7254768484868698,0.35721344849513803,0.15627008814107915
232,5.82623291015625,0.7046,-0.0544,0.1299,-9.667,-0.207,1.394,0.002309,-0.011835,-0.004059,0.5710557940965686,0.7195031023872042,0.36400867050492725,0.15397484691066063
233,5.861824989318848,0.6968,-0.0532,0.1173,-9.683,-0.227,1.431,0.00393,-0.011083,-0.006315,0.5766640601699173,0.7071088157565397,0.3765860599676678,0.16012065396368413
234,5.878963232040405,0.7038,-0.0552,0.1304,-9.693,-0.208,1.44,0.004819,-0.016985,-0.005661,0.5815940442999936,0.694912123625914,0.3906668122071316,0.16194119275964658
235,5.902087450027466,0.6956,-0.0508,0.1176,-9.672,-0.229,1.451,-0.000624,-0.013338,-0.005241,0.5899304196560688,0.6795819588486776,0.403357440430251,0.16569018203069624
236,5.930253744125366,0.7033,-0.0541,0.1296,-9.659,-0.259,1.486,0.00326,-0.013572,-0.004129,0.5928012636210973,0.6727533090040603,0.41210600587446883,0.16173523733407594
237,5.96234655380249,0.6963,-0.0519,0.1186,-9.684,-0.233,1.412,-0.004997,-0.013705,-0.003049,0.5964788135714816,0.6655896254019871,0.41994472875218725,0.1576385115092504
238,5.980852127075195,0.7028,-0.0538,0.132,-9.667,-0.247,1.434,0.000309,-0.012742,-0.006173,0.6039123877879446,0.650621806450479,0.43086874924985197,0.16227511752344195
239,6.002837657928467,0.6953,-0.0511,0.1163,-9.676,-0.26,1.426,-0.000372,-0.011994,-0.006615,0.6161353314324561,0.6220419163738683,0.4482895390401419,0.1802154178246686
240,6.0280115604400635,0.7022,-0.0562,0.1283,-9.647,-0.261,1.483,-0.005282,-0.014666,-0.009475,0.6304110958898046,0.5868140086806521,0.4653292298579684,0.20420547797488034
241,6.054925441741943,0.6953,-0.0522,0.1173,-9.668,-0.269,1.529,-0.007662,-0.013484,-0.010126,0.6471390642749161,0.5412145514505803,0.48195165078870583,0.23668638974299827
242,6.077258825302124,0.7022,-0.0544,0.1301,-9.68,-0.21,1.463,-0.005146,-0.011152,-0.010501,0.661588167822411,0.49084324440627614,0.4957737293966381,0.27492256156644335
243,6.107165098190308,0.6948,-0.0516,0.116,-9.658,-0.239,1.479,0.003984,-0.010657,-0.008897,0.6691657467301724,0.4452198443428093,0.5074893731160942,0.3105656609811347
244,6.131158828735352,0.702,-0.0535,0.1277,-9.689,-0.261,1.528,0.005264,-0.012473,-0.009042,0.6719944269348093,0.40504708563102143,0.5178960042621278,0.34079917452906944
245,6.15498423576355,0.6966,-0.0522,0.1173,-9.669,-0.263,1.475,-0.006727,-0.007505,-0.009374,0.6745720483627775,0.35661059709900833,0.52326455881866,0.3794412142725781
246,6.179413080215454,0.7046,-0.0541,0.1301,-9.669,-0.25,1.408,-0.010284,-0.01006,-0.008438,0.675609261203844,0.30702540988980154,0.5223569016022503,0.42003665459825346
247,6.2095866203308105,0.6982,-0.0508,0.1165,-9.664,-0.191,1.52,-0.006938,-0.008437,-0.008541,0.6738956607951988,0.2605930394459183,0.5184331910428251,0.4573652070051828
248,6.228661775588989,0.7072,-0.0527,0.1278,-9.666,-0.247,1.495,-0.007505,-0.007528,-0.00532,0.6703597301383698,0.2227052325909477,0.5142083614605615,0.48642571127508094
249,6.254290342330933,0.6999,-0.0519,0.1142,-9.71,-0.259,1.496,0.010732,-0.006449,-0.005875,0.6626305985516299,0.19044456062344517,0.5114318855083144,0.5129220074021608
250,6.281876087188721,0.7064,-0.0519,0.1286,-9.65,-0.263,1.479,0.020814,-0.00813,-0.004707,0.6524969186529513,0.16628346003486355,0.5132958398144915,0.5320948814792091
251,6.303279399871826,0.6974,-0.0497,0.1144,-9.688,-0.284,1.494,0.018241,-0.010972,-0.003846,0.6450115547145729,0.15095159218666812,0.5186527344319325,0.5405303434288204
252,6.328007698059082,0.7054,-0.0527,0.1251,-9.668,-0.274,1.51,-0.009943,-0.010115,-0.001205,0.6438969348846045,0.1404805607906639,0.5216939362113922,0.5417539904849946
253,6.3570191860198975,0.7013,-0.0508,0.1152,-9.659,-0.211,1.473,-0.017357,-0.005898,-0.002329,0.6441586160030004,0.12493335909312461,0.5166259388616194,0.5500445186620421
254,6.389764070510864,0.7072,-0.0535,0.128,-9.664,-0.243,1.537,0.000153,-0.010665,-0.001066,0.641228851316705,0.10769324308496536,0.5137404036202868,0.5597307596701884
255,6.40583348274231,0.6982,-0.0484,0.1166,-9.652,-0.249,1.496,0.002055,-0.006237,0.000339,0.6412807109796589,0.10389452361557586,0.5166110831259747,0.5577436386723948
256,6.4299702644348145,0.7072,-0.0527,0.1259,-9.663,-0.253,1.495,0.012161,-0.009647,0.002438,0.6444359346242858,0.11254045285216693,0.5267161344848539,0.5427771976696202
257,6.453858375549316,0.7012,-0.0522,0.1158,-9.666,-0.246,1.483,0.004866,-0.011612,1.9e-05,0.6498373184465749,0.1210371522422721,0.537330279075689,0.5237725064564652
258,6.478636026382446,0.708,-0.0541,0.1265,-9.714,-0.221,1.515,0.001611,-0.009402,-0.00147,0.6496584502863849,0.1146419955886103,0.5413136390344172,0.5213258625986922
259,6.509443283081055,0.7,-0.0503,0.1118,-9.687,-0.217,1.562,0.006172,-0.00911,0.000333,0.6511563323891487,0.11400308088679881,0.5463858714376122,0.5142579195609838
260,6.532921075820923,0.7069,-0.0527,0.1259,-9.632,-0.164,1.544,0.006247,-0.00794,0.001874,0.6547306099088348,0.12219592798405643,0.5558556143658624,0.49741383134214323
261,6.556039094924927,0.7025,-0.0527,0.1147,-9.66,-0.21,1.504,0.002173,-0.005426,0.006925,0.6644548262901988,0.15495745374399314,0.5678178249424664,0.46051155145820855
262,6.579666376113892,0.709,-0.0538,0.1262,-9.643,-0.278,1.562,0.003223,-0.00627,0.004102,0.6727951327031039,0.18823875928099898,0.5775571182108397,0.422303983073038
263,6.6124279499053955,0.6997,-0.0503,0.1118,-9.621,-0.302,1.536,0.003486,-0.006423,-1.2e-05,0.6754406891994218,0.19939356647498155,0.582997326889604,0.4051372580518526
264,6.629872798919678,0.7038,-0.0519,0.1259,-9.643,-0.232,1.558,6e-06,-0.00572,-0.002669,0.6738190800685612,0.1850792293794562,0.5842304196083612,0.41278122897256686
265,6.6629860401153564,0.6969,-0.0505,0.1149,-9.689,-0.226,1.559,-0.003133,-0.004803,-0.001612,0.6732005737245879,0.1737967670503432,0.5848561297954704,0.417778624082657
266,6.68192458152771,0.7038,-0.0541,0.1304,-9.661,-0.22,1.531,-0.005519,-0.006517,0.000196,0.67540728126456,0.17437616247637214,0.5871325734860242,0.41072289871214607
267,6.705702781677246,0.6961,-0.05,0.1149,-9.699,-0.201,1.525,0.000402,-0.006878,0.003162,0.6805059727931693,0.1966634717509773,0.593479852940121,0.3821213995916053
268,6.72970986366272,0.7049,-0.0522,0.1259,-9.68,-0.243,1.544,-0.006826,-0.00534,0.007491,0.6860811911847977,0.23200568267763688,0.5993443499397226,0.3409579336268095
269,6.754969596862793,0.6987,-0.0503,0.1144,-9.665,-0.224,1.516,-0.003011,-0.00233,0.007827,0.6892299361032345,0.2731388173469249,0.6017387968279504,0.2970988085292585
270,6.781497478485107,0.7046,-0.0525,0.128,-9.68,-0.217,1.562,0.007145,-0.005332,0.009563,0.6870719576078214,0.33398997614481774,0.6018682638767875,0.23267448042637207
271,6.806957244873047,0.6961,-0.0495,0.1133,-9.659,-0.283,1.583,0.019765,-0.004106,0.010595,0.674286374682656,0.40545414574483296,0.596878063810488,0.1571031430541462
272,6.83437442779541,0.7059,-0.0541,0.1259,-9.669,-0.298,1.522,0.009594,-0.003047,0.007895,0.6577108642953221,0.4614630321603119,0.5873436347479137,0.09744610643027621
273,6.855901718139648,0.7013,-0.0513,0.1145,-9.661,-0.236,1.513,0.005867,-0.004761,0.004617,0.6457709433844903,0.49432651735192196,0.5789000078511496,0.05912667615352757
274,6.8805036544799805,0.7096,-0.0522,0.1273,-9.667,-0.294,1.57,0.009326,-0.005219,0.004265,0.6338208218382864,0.5198037086694196,0.5721082558792174,0.02770223479425843
275,6.905793905258179,0.7005,-0.05,0.1099,-9.642,-0.299,1.513,0.005395,0.000236,0.000429,0.6264590219396019,0.5330227512095351,0.5685815780716157,0.012281270336842065
276,6.931771755218506,0.708,-0.0522,0.1249,-9.643,-0.24,1.557,0.002952,0.000177,-0.002968,0.6284592515232252,0.5262338177200728,0.5724907223329891,0.01926943448253815
277,6.957233190536499,0.7008,-0.0497,0.1123,-9.646,-0.228,1.569,0.005712,-0.004437,-0.00147,0.6300632964026863,0.5176185054298116,0.5784109139939808,0.02306815847519217
278,6.981840133666992,0.7075,-0.0533,0.127,-9.64,-0.209,1.584,0.013128,-0.000867,0.001319,0.6260104219767135,0.5212839130408226,0.5797205508508027,0.017266050579883507
279,7.007074594497681,0.6997,-0.0495,0.1107,-9.658,-0.24,1.58,0.012631,-0.003651,0.001085,0.6168820843050954,0.5357729676361266,0.5765443268833416,-0.0006784927516070294
280,7.039340972900391,0.7072,-0.0525,0.1257,-9.673,-0.245,1.536,0.014219,-0.0025,-0.00092,0.6114715353486496,0.541244203786348,0.5770932779244549,-0.010982800210100618
281,7.058404922485352,0.7023,-0.0519,0.1137,-9.689,-0.255,1.536,0.02389,-0.002704,-0.001821,0.6074083171852025,0.5404817430764868,0.5820050153306531,-0.014310267125715537
282,7.087950706481934,0.7072,-0.0514,0.1278,-9.662,-0.223,1.576,0.016589,-0.004281,0.00055,0.6008994796807295,0.545052377828161,0.584129567296517,-0.025107157411387804
283,7.106472015380859,0.699,-0.0476,0.1097,-9.666,-0.209,1.525,0.002277,-0.001282,0.001947,0.5945782387909064,0.5540535057382275,0.5815147327436372,-0.036633950613879196
284,7.132465124130249,0.7049,-0.0516,0.1235,-9.673,-0.213,1.523,0.001254,-0.001722,0.004485,0.5841038039405291,0.5728160914120073,0.5721363584519412,-0.0580039565807951
285,7.158840179443359,0.6971,-0.0516,0.1131,-9.669,-0.248,1.538,0.010977,-0.000219,0.003625,0.5698551913972442,0.594064329161843,0.5620266608850264,-0.08049016156976646
286,7.182006359100342,0.7015,-0.0506,0.1288,-9.646,-0.223,1.527,0.012163,-0.000944,0.003346,0.5596884915452557,0.6059371060631007,0.5575152271482938,-0.09362578397779778
287,7.2160351276397705,0.6943,-0.0476,0.1139,-9.689,-0.251,1.518,0.006174,0.003164,0.002432,0.5536382422790578,0.612025601331633,0.5560820760207309,-0.09839758497688031
288,7.237372398376465,0.7046,-0.0511,0.1254,-9.668,-0.251,1.54,0.007477,0.002109,0.000847,0.551246125887122,0.6127873712352211,0.5578240692733271,-0.09721961781663746
289,7.257784843444824,0.6994,-0.0519,0.1128,-9.658,-0.273,1.563,-0.001914,0.002804,0.000904,0.5515925022019807,0.6110550917466635,0.5600069923000239,-0.09353905569394791
290,7.288054943084717,0.7047,-0.0506,0.1251,-9.668,-0.228,1.577,-0.013564,-0.002344,0.003955,0.5503732855017769,0.6144335558500471,0.5567015142692203,-0.098204256841563
291,7.30724310874939,0.6946,-0.0478,0.1109,-9.677,-0.202,1.601,-0.013123,0.000304,0.008399,0.5391998383283095,0.6339162627805657,0.5413896627103778,-0.1196283379446064
292,7.335108280181885,0.701,-0.0514,0.1222,-9.667,-0.187,1.568,-0.015754,0.000456,0.009371,0.5172072398372421,0.6664111661231893,0.5150255903905964,-0.15212320654354522
293,7.358407974243164,0.6956,-0.0508,0.1131,-9.642,-0.169,1.561,-0.006897,0.000466,0.009682,0.4825079114201192,0.7085032944745082,0.47748489413111267,-0.19291804739931115
294,7.3829615116119385,0.7018,-0.0508,0.1269,-9.654,-0.18,1.554,0.001312,-0.002925,0.00744,0.45017426073271977,0.740044536485877,0.44542729765054434,-0.22643264229983734
295,7.40775203704834,0.694,-0.0516,0.1136,-9.634,-0.186,1.602,0.001902,-0.003743,0.010414,0.4105667295973986,0.7727615868292094,0.4071215837482598,-0.2617756797626692
296,7.434754848480225,0.7013,-0.0514,0.1245,-9.683,-0.149,1.606,0.000654,-0.008124,0.008652,0.36462642835655645,0.8037745857229016,0.3629890056437209,-0.2987188726406512
297,7.457840204238892,0.6951,-0.05,0.1141,-9.647,-0.214,1.557,-0.002155,-0.004239,0.008259,0.3219515819089452,0.8280411638457856,0.32083107124068755,-0.32827188976486765
298,7.490063905715942,0.7015,-0.0516,0.1277,-9.645,-0.162,1.512,-0.008783,0.002816,0.00817,0.28618459183667044,0.8467001298745068,0.2843144287989877,-0.3469330987992888
299,7.508357286453247,0.6933,-0.0476,0.1112,-9.657,-0.167,1.589,-0.006065,3e-05,0.007156,0.25586716651685354,0.8610182330851289,0.2522382548289321,-0.35993813106484607
300,7.535033464431763,0.701,-0.0519,0.1221,-9.63,-0.174,1.563,-0.005013,0.000769,0.009197,0.20906912390222182,0.8783317695382733,0.20494458436469704,-0.37791681808316585
301,7.55933690071106,0.695,-0.0511,0.1125,-9.665,-0.207,1.568,0.005302,-0.003623,0.007001,0.1615663471584024,0.8914238428029703,0.15919955517065956,-0.39232046796176767
302,7.588461637496948,0.7,-0.0514,0.1248,-9.661,-0.179,1.526,0.006793,-0.004974,0.002339,0.12881519545627,0.8964964607045934,0.13042184794839404,-0.4033495790767931
303,7.607875347137451,0.6912,-0.0489,0.1114,-9.665,-0.179,1.526,0.004047,-0.003018,0.004384,0.09697005604939304,0.9007585365639807,0.1017497582193373,-0.4109475072794573
304,7.638313055038452,0.6999,-0.053,0.1224,-9.648,-0.203,1.577,0.001198,-0.003895,0.008034,0.054562804960966785,0.9048610502052054,0.06126519087714848,-0.4177271316578689
305,7.660099506378174,0.6953,-0.0519,0.1131,-9.666,-0.198,1.559,-0.003176,0.001447,0.009321,0.003908630945663947,0.9073363893625773,0.011828829444692022,-0.4202207490552797
306,7.684126377105713,0.7002,-0.0535,0.1269,-9.66,-0.197,1.579,-0.011733,0.002477,0.010433,-0.050831988189000324,0.9058803397138777,-0.0448521742326282,-0.4180732012019289
307,7.709599018096924,0.6948,-0.05,0.1131,-9.671,-0.198,1.55,-0.022015,0.004505,0.012316,-0.10475659442250834,0.9001864915667316,-0.10413957416748529,-0.4096892547016479
308,7.739811182022095,0.7046,-0.0524,0.1227,-9.658,-0.19,1.558,-0.017514,0.005429,0.009059,-0.15339232522060875,0.8912917766534321,-0.1584634566796823,-0.39618063598630127
309,7.760192394256592,0.6986,-0.0524,0.112,-9.699,-0.215,1.596,-0.004949,0.004204,0.005149,-0.18648491993407623,0.8832936227442155,-0.1933434858001489,-0.38423176229357764
310,7.791497230529785,0.7051,-0.0522,0.1225,-9.653,-0.179,1.602,-0.001381,-0.000272,0.002173,-0.2034991413959574,0.8784678789650624,-0.2096253024052811,-0.3780734289383839
311,7.809489011764526,0.6956,-0.0492,0.1083,-9.653,-0.147,1.601,0.001269,0.005938,0.00245,-0.21426226685390937,0.8763636663500005,-0.2184194930034013,-0.37198297055153745
312,7.835365295410156,0.7023,-0.0516,0.1238,-9.688,-0.164,1.58,0.000398,0.007109,0.00344,-0.23290762221864905,0.871526748778366,-0.23506969894619856,-0.36185273567241316
313,7.863679647445679,0.6971,-0.0508,0.1115,-9.676,-0.178,1.53,-0.002324,0.007528,0.003318,-0.2466474221443125,0.8685476953203178,-0.24728947145025207,-0.35162176754743796
314,7.894009590148926,0.7036,-0.0519,0.1262,-9.662,-0.163,1.554,0.004642,0.01013,0.003666,-0.2631077042044934,0.8644310681153234,-0.2611354810974424,-0.33961967695828393
315,7.910926342010498,0.6956,-0.0489,0.1107,-9.667,-0.216,1.589,-0.000905,0.008056,0.003063,-0.277235490148878,0.8610031887609714,-0.2720376604562922,-0.3283435749924424
316,7.934692144393921,0.7028,-0.0535,0.1222,-9.658,-0.183,1.535,-0.008952,0.00779,0.0026,-0.2844476910461595,0.8591680368458032,-0.2802644259138055,-0.3199556955083661
317,7.96008038520813,0.6981,-0.0511,0.1112,-9.675,-0.179,1.537,-0.010563,0.009062,0.000544,-0.286848534732991,0.8594327158557266,-0.28479515574569264,-0.31302562882641555
318,7.990390062332153,0.7018,-0.0519,0.1251,-9.676,-0.178,1.561,-0.000685,0.009098,-0.001326,-0.27890620256207405,0.8651121995734222,-0.2762754192348662,-0.3121924167052067
319,8.010569095611572,0.6917,-0.0497,0.1101,-9.677,-0.143,1.623,-0.007739,0.006506,-0.000325,-0.2702904499371211,0.8705941058533029,-0.26791121035237786,-0.3118213573407064
320,8.035781383514404,0.6968,-0.0524,0.1237,-9.672,-0.154,1.569,-0.009833,0.011512,0.002412,-0.27189192644270654,0.87154240838607,-0.2703311654790614,-0.30562995875832377
321,8.060813903808594,0.6917,-0.0503,0.1152,-9.664,-0.156,1.529,-0.017594,0.014694,-0.000586,-0.2628737618510667,0.8778865865588048,-0.2653265147367101,-0.29969045204688965
322,8.098512172698975,0.6989,-0.0514,0.128,-9.651,-0.161,1.503,-0.007166,0.010757,-0.003477,-0.23904727350287186,0.889928714928006,-0.24418635092668642,-0.30208659255011666
323,8.124788999557495,0.6912,-0.0481,0.1112,-9.66,-0.189,1.543,0.00224,0.012789,-0.000365,-0.22609247934928417,0.8977286139261107,-0.22982204864321099,-0.3002454870225951
324,8.143485069274902,0.6992,-0.0527,0.1253,-9.665,-0.187,1.569,0.001499,0.011416,0.000369,-0.22000634056601773,0.9027504880230945,-0.22015297910567677,-0.2969367479375187
325,8.16165018081665,0.6932,-0.0505,0.1146,-9.684,-0.162,1.562,-0.013273,0.00802,0.001472,-0.21397963176615878,0.9061814803175514,-0.2150449973252529,-0.29462432188142973
326,8.190237522125244,0.6971,-0.0514,0.125,-9.671,-0.176,1.522,-0.013197,0.009012,0.001995,-0.21004147008829138,0.9085060118852978,-0.2154489033925181,-0.28996754514666334
327,8.215631484985352,0.6899,-0.0494,0.1096,-9.658,-0.179,1.562,-0.017898,0.011105,0.005494,-0.21955140382118052,0.9060579322332634,-0.22909532537652277,-0.27994916754289045
328,8.238808393478394,0.6971,-0.0511,0.1261,-9.664,-0.209,1.457,-0.024374,0.01259,0.003099,-0.22301074533916776,0.9054908338392712,-0.24034287129809773,-0.26942134568834075
329,8.263837814331055,0.6927,-0.0524,0.1157,-9.656,-0.176,1.477,-0.018004,0.010577,0.002817,-0.2155824041962502,0.9090539072216862,-0.24061857431478448,-0.2631499999252727
330,8.292831420898438,0.6971,-0.0527,0.1279,-9.677,-0.166,1.521,-0.011556,0.010073,0.004725,-0.22264295877507997,0.9071665518807717,-0.2522744438193153,-0.2526589896526235
331,8.312832117080688,0.6904,-0.05,0.1141,-9.663,-0.165,1.502,-0.016364,0.009147,0.008389,-0.24759645143685444,0.8970267262015683,-0.28160295130246993,-0.23396330381859576
332,8.343623161315918,0.6992,-0.0525,0.1264,-9.667,-0.174,1.514,-0.026624,0.006482,0.008286,-0.2708874302912488,0.8840294304265328,-0.3138709359675154,-0.21586338690204016
333,8.362568616867065,0.6956,-0.0503,0.1147,-9.657,-0.166,1.493,-0.020338,0.006814,0.008992,-0.2992763581459513,0.8662428045509825,-0.3507483339125618,-0.19243874681598508
334,8.38788652420044,0.7018,-0.0527,0.1248,-9.673,-0.212,1.495,-0.013755,0.006993,0.008761,-0.3321472651815015,0.843152046626605,-0.3898696803971413,-0.16362900967996974
335,8.413068532943726,0.6935,-0.0481,0.112,-9.677,-0.177,1.474,-0.011275,0.010598,0.006314,-0.35057430773484843,0.8286810114381937,-0.41275763436087587,-0.1414799325516427
336,8.44446325302124,0.7007,-0.0524,0.1232,-9.659,-0.195,1.468,-0.012467,0.00694,0.005525,-0.36290012752787987,0.8179671866340547,-0.4288747213078806,-0.12369176388630704
337,8.463236570358276,0.695,-0.0519,0.1149,-9.663,-0.154,1.506,-0.016022,0.008964,0.003661,-0.36850906803839323,0.8113954226186053,-0.4400903964047579,-0.1102677555741148
338,8.487390518188477,0.7002,-0.0533,0.1272,-9.646,-0.196,1.524,-0.016147,0.010035,0.004319,-0.37445081627476245,0.8039202964719891,-0.4522223696909567,-0.09483496961906394
339,8.512834787368774,0.6925,-0.0484,0.112,-9.673,-0.197,1.491,-0.035931,0.007036,0.00663,-0.37490487715112303,0.7975793949528687,-0.46528246116159755,-0.08261763232097524
340,8.548231363296509,0.7004,-0.0538,0.1251,-9.642,-0.176,1.532,-0.031525,0.005848,0.007612,-0.3822572096318776,0.7818452563896994,-0.4884275262982042,-0.06352930268461185
341,8.562908411026001,0.6953,-0.0511,0.1139,-9.667,-0.119,1.464,-0.022861,0.003373,0.007149,-0.3937106921679159,0.7632087522444208,-0.510605800170171,-0.04226119026665226
342,8.58749532699585,0.6997,-0.0516,0.1253,-9.684,-0.124,1.531,-0.011057,0.005083,0.004848,-0.40565497442169923,0.7441774184742657,-0.5302676270542339,-0.021453560501230595
343,8.612339735031128,0.6896,-0.0495,0.1112,-9.671,-0.124,1.458,-0.018336,0.004944,0.004224,-0.41520009583520967,0.7287609644844115,-0.5445270662323152,-0.0025712258964858403
344,8.6387619972229,0.6963,-0.0533,0.1224,-9.697,-0.137,1.422,-0.00352,0.002788,0.002442,-0.41952164919924523,0.7190344294598054,-0.5539679673300035,0.010515050015178412
345,8.718432426452637,0.6926,-0.0543,0.1167,-9.651,-0.18,1.449,0.010872,0.003042,0.001739,-0.4303377337555619,0.7083250412877002,-0.5589941210116771,0.024711201210938283
346,8.72148060798645,0.6989,-0.0525,0.1274,-9.658,-0.237,1.434,0.005231,0.005103,-0.002041,-0.4323107791767732,0.7108891030938498,-0.5541201834172637,0.026360873271027957
347,8.74570894241333,0.6896,-0.0508,0.1117,-9.678,-0.219,1.48,-0.013616,-0.000146,-0.004566,-0.41495696750063527,0.7351725824802166,-0.536029060982943,0.0021988346436417894
348,8.747690439224243,0.6968,-0.0543,0.1263,-9.666,-0.173,1.499,-0.025968,0.0023,-0.005368,-0.38434427627390355,0.7660529135387766,-0.5143602523832163,-0.029596312650650936
349,8.76270079612732,0.6929,-0.0516,0.1165,-9.672,-0.147,1.549,-0.015844,0.002242,-0.003458,-0.3579553057284137,0.7894004178210673,-0.4958072883533521,-0.053759764327030723
350,8.789333820343018,0.6973,-0.0527,0.1266,-9.649,-0.102,1.514,-0.009276,0.002059,0.00022,-0.3516538392850346,0.7941003207604849,-0.49241725870113706,-0.057179552441827014
351,8.815495252609253,0.6893,-0.05,0.113,-9.666,-0.12,1.492,0.000689,0.001479,0.003037,-0.35906758794141264,0.7867455857934804,-0.49979887401500467,-0.047988915988408515
352,8.846847534179688,0.6973,-0.053,0.1253,-9.647,-0.217,1.427,-0.006328,-0.000539,0.000824,-0.3631406796428759,0.7835835064778703,-0.5022457489855939,-0.04330060958295506
353,8.864177465438843,0.6929,-0.0519,0.1183,-9.661,-0.249,1.434,-0.011053,-0.001812,-0.005947,-0.3465680663996493,0.7994246743923256,-0.48704170700989624,-0.06000950722692808
354,8.890814304351807,0.6989,-0.0527,0.1264,-9.676,-0.213,1.49,-0.007449,-0.003562,-0.010013,-0.3104607495596456,0.8309338817300256,-0.4516217082038075,-0.09592100841322382
355,8.918169021606445,0.6896,-0.0486,0.112,-9.685,-0.196,1.493,-0.007873,-0.002502,-0.009516,-0.2668111122778758,0.8632714517034756,-0.40765821639786176,-0.13186739415841536
356,8.946772575378418,0.6992,-0.0522,0.1243,-9.671,-0.157,1.454,-0.017259,-0.003754,-0.005955,-0.2271428629659173,0.8860435143260221,-0.371789364641325,-0.15844771649991912
357,8.965439558029175,0.6937,-0.0522,0.1133,-9.666,-0.134,1.531,-0.019158,-0.001003,-0.00376,-0.19528787695337968,0.9005328102683166,-0.34598572071995404,-0.17662724535921348
358,8.990434646606445,0.6994,-0.0538,0.1266,-9.667,-0.176,1.487,-0.012726,-0.003873,-0.003965,-0.16426890561830543,0.9127101879432835,-0.32047466319906975,-0.1930591352900534
359,9.015294313430786,0.6927,-0.0492,0.1115,-9.659,-0.182,1.495,-0.01673,-0.004809,-0.008335,-0.1235914887289357,0.9270825108359798,-0.28381172966818946,-0.21140970677471593
360,9.039482593536377,0.702,-0.053,0.1232,-9.661,-0.166,1.537,-0.014716,-0.004934,-0.007396,-0.07493278943729555,0.9400992391055388,-0.23928580618829443,-0.23095627434029808
361,9.065113306045532,0.6966,-0.0505,0.1136,-9.633,-0.183,1.463,-0.013118,-0.006582,-0.002691,-0.044782198459371564,0.9456221124190484,-0.21127849821022157,-0.24321753925100784
362,9.09220004081726,0.7005,-0.0516,0.124,-9.694,-0.173,1.493,-0.019489,-0.005548,-0.002508,-0.021700646153809146,0.9483282215756776,-0.19244644929858853,-0.2513305199771518
363,9.117183208465576,0.693,-0.0489,0.1091,-9.702,-0.172,1.479,-0.016451,-0.005205,-0.002063,0.0009496613235279658,0.9498025100912538,-0.17520365036475644,-0.2591871348400389
364,9.140986680984497,0.702,-0.0511,0.1235,-9.687,-0.187,1.533,-0.01501,-0.007476,-0.003139,0.025050861872715623,0.9509906895722025,-0.15419275683141145,-0.26685905719527386
365,9.165001392364502,0.6968,-0.0513,0.1152,-9.665,-0.142,1.516,-0.011501,-0.001829,-0.003857,0.04674227988238114,0.9518182932359468,-0.13395027420849823,-0.2718720654504143
366,9.199474096298218,0.702,-0.0514,0.1246,-9.648,-0.139,1.525,-0.00983,-0.001853,-0.004115,0.07072962010734443,0.9524634442020797,-0.11202231585263409,-0.2743386758173101
367,9.222703456878662,0.693,-0.0492,0.1064,-9.638,-0.167,1.487,-0.010527,-0.006568,-0.002844,0.08983955708015862,0.9514676791213865,-0.09432533632123911,-0.278820444908347
368,9.239612340927124,0.7015,-0.0524,0.1219,-9.663,-0.208,1.471,0.0063,-0.005428,-0.003751,0.10327230724727697,0.9509182060158583,-0.07757418455694326,-0.28119680281562764
369,9.265668153762817,0.6974,-0.0505,0.1118,-9.668,-0.24,1.452,0.002348,-0.0085,-0.007052,0.12350894617763478,0.9488637935044235,-0.05011889897806467,-0.28616627606290596
370,9.301966190338135,0.7023,-0.0503,0.1248,-9.648,-0.198,1.49,-0.001196,-0.006247,-0.006573,0.15344331466643477,0.9450217574503622,-0.016159878890010325,-0.2883190688176319
371,9.320053100585938,0.6948,-0.0484,0.1072,-9.661,-0.192,1.527,-0.005082,-0.008715,-0.005155,0.18216082368325662,0.939481682137521,0.015396964968713775,-0.2897490926868341
372,9.343625545501709,0.702,-0.0514,0.1227,-9.674,-0.176,1.476,-0.010436,-0.004398,0.000315,0.18266813624308037,0.9379995174404521,0.015366637608709252,-0.2941991225880201
373,9.371084690093994,0.6982,-0.0503,0.1123,-9.656,-0.198,1.495,-0.00598,-0.007017,-0.002183,0.1882705395316118,0.9358776815527344,0.02190647326692305,-0.29699709686284836
374,9.431345701217651,0.7023,-0.0508,0.1232,-9.663,-0.239,1.465,-0.007223,-0.007887,-0.006415,0.20804620449960323,0.9305110038701428,0.043418033876949265,-0.29829670263706964
375,9.435832262039185,0.6953,-0.0486,0.1075,-9.662,-0.201,1.519,-0.002677,-0.006473,-0.007626,0.24180537972155472,0.9208974170204638,0.08016946745768491,-0.29504400036317285
376,9.473158836364746,0.7046,-0.0514,0.1203,-9.686,-0.218,1.54,-0.000367,-0.00668,-0.007808,0.27076152578052354,0.9108136887325516,0.11256029963636038,-0.29058010861065176
377,9.475933313369751,0.7031,-0.0492,0.1113,-9.684,-0.241,1.513,-0.003667,-0.008065,-0.007828,0.30274433353453367,0.897404759301102,0.14810351727596593,-0.28473832665615995
378,9.498397588729858,0.7059,-0.0511,0.1203,-9.646,-0.222,1.521,-0.010467,-0.007489,-0.005323,0.3330179919094798,0.8830295838611876,0.17902746184574447,-0.27804125412532943
379,9.515637874603271,0.698,-0.0465,0.1041,-9.643,-0.202,1.537,-0.015209,-0.006289,-0.006514,0.3675367486460177,0.8650301400076856,0.2109493991140901,-0.26858880521422
380,9.542662620544434,0.7041,-0.0508,0.1206,-9.672,-0.207,1.517,-0.00574,-0.007252,-0.006591,0.39398018725377826,0.8487385707025542,0.23743822229779,-0.2608554029444831
381,9.570738792419434,0.6997,-0.0492,0.1118,-9.676,-0.194,1.518,0.004173,-0.006797,-0.006207,0.4138918688748509,0.834405800403426,0.2620664118777949,-0.25255034527376763
382,9.591661930084229,0.7047,-0.0492,0.1219,-9.656,-0.217,1.553,-0.000844,-0.006508,-0.00338,0.42313554630245415,0.8260155136647819,0.275678996613298,-0.2503113490569608
383,9.623536825180054,0.6988,-0.0465,0.1054,-9.683,-0.189,1.563,-0.005356,-0.006076,-0.001411,0.43144857015637805,0.8181643774428673,0.2864734455021455,-0.24978420249421568
384,9.642804861068726,0.707,-0.0492,0.1204,-9.673,-0.198,1.533,-0.011929,-0.006303,0.001977,0.4316462113389346,0.8163485586475275,0.286458100034288,-0.25533964822485716
385,9.667810440063477,0.6998,-0.0478,0.1089,-9.599,-0.233,1.533,0.002231,-0.005671,0.004242,0.41263164851635337,0.8268741676966106,0.26889944884834205,-0.2714909203781451
386,9.693737030029297,0.7034,-0.0503,0.1201,-9.69,-0.212,1.491,0.008605,-0.009414,0.002729,0.38694516568971976,0.8389860606171896,0.24954611348813766,-0.2900044242462003
387,9.727056741714478,0.6967,-0.0465,0.1059,-9.687,-0.273,1.543,-0.002072,-0.005678,0.001773,0.3708270471067197,0.8453823223203313,0.2379898766182953,-0.3019550444513268
388,9.759682178497314,0.7021,-0.05,0.1182,-9.642,-0.252,1.505,-0.014838,-0.00109,0.001014,0.36766741598966624,0.8463897060004042,0.2331718276645506,-0.3067181696274352
389,9.778594255447388,0.6987,-0.0489,0.1105,-9.645,-0.254,1.521,-0.009768,-0.004746,0.000344,0.36891849721927034,0.8448960283336922,0.23268906004551773,-0.3096863656194143
390,9.794330358505249,0.7029,-0.0492,0.123,-9.627,-0.236,1.552,0.001302,-0.004885,-0.00323,0.3760256270178859,0.8396424530366509,0.24145188258846645,-0.30871713149562474
391,9.829593658447266,0.6964,-0.0489,0.1067,-9.67,-0.243,1.527,0.002259,-0.007875,-0.003978,0.39279590307139584,0.8276141979585377,0.2626076155416539,-0.3029906898360077
392,9.842506408691406,0.7049,-0.05,0.1179,-9.65,-0.256,1.55,-0.001473,-0.004042,-0.001484,0.40287536928314743,0.8195927413500944,0.27514285793640125,-0.3004256694721576
393,9.873738527297974,0.7008,-0.0489,0.1099,-9.662,-0.24,1.566,-0.003466,-0.004869,-0.002122,0.41454317282545405,0.810478757846343,0.2890912585414362,-0.29614926165463057
394,9.893949508666992,0.7049,-0.0495,0.1201,-9.682,-0.207,1.56,-0.005063,-0.006573,-0.001029,0.4204001458800561,0.804637432500585,0.2962496011437046,-0.29674651368649685
395,9.920776605606079,0.698,-0.0462,0.1028,-9.663,-0.25,1.543,-0.001979,-0.003968,0.00057,0.42050038381822125,0.8030169222890046,0.29769437668474297,-0.2995351528894494
396,9.943570137023926,0.7068,-0.0489,0.1217,-9.654,-0.25,1.548,-0.001377,-0.003332,0.002186,0.41900203328456,0.8024373494125138,0.29838149461704344,-0.30248980154928057
397,9.970758438110352,0.7036,-0.0497,0.1092,-9.646,-0.231,1.589,-0.006918,-0.003492,0.003017,0.4111876311219968,0.8063454454311954,0.2913399067283879,-0.30960105521806947
398,9.993949890136719,0.7075,-0.0487,0.1193,-9.677,-0.247,1.515,-0.001058,-0.003357,0.000673,0.4153500464319853,0.8025098693463011,0.29676948294289773,-0.3088529140619131
399,10.018284797668457,0.7006,-0.047,0.1036,-9.658,-0.237,1.557,-0.003956,-0.002246,0.001221,0.41814605434338925,0.7994063268635849,0.30131771729194523,-0.3087248533135903
400,10.04313325881958,0.7086,-0.0497,0.1177,-9.606,-0.233,1.564,-0.003835,-0.002909,0.002526,0.4181220741874002,0.7987587594312476,0.30175289354138546,-0.3100057524441791
401,10.072813510894775,0.7057,-0.0478,0.1092,-9.683,-0.22,1.555,-0.013827,-0.004769,0.004645,0.41575455367077563,0.798817229568013,0.2981098760572192,-0.31649595043925566
402,10.095167398452759,0.7088,-0.0489,0.1175,-9.684,-0.229,1.561,-0.006096,-0.001853,0.002159,0.40987965011037564,0.8020878915462131,0.29150518354089694,-0.3219913269470688
403,10.1217041015625,0.704,-0.0454,0.102,-9.628,-0.231,1.554,-0.006646,-0.00342,0.004616,0.3982073903072743,0.8088376571850252,0.2796714178776868,-0.33014605350722276
404,10.14536166191101,0.7107,-0.0487,0.1175,-9.657,-0.193,1.592,-0.008871,-0.004104,0.004196,0.3894636911438422,0.8126377221123299,0.27038458300541635,-0.3388659663549657
405,10.169134140014648,0.708,-0.0494,0.1071,-9.667,-0.198,1.547,-0.013374,-0.003968,0.004945,0.37295301386136354,0.8212441093852973,0.25193138797101083,-0.3507060564157332
406,10.193714618682861,0.7125,-0.0489,0.1175,-9.651,-0.239,1.525,-0.001853,-0.00291,0.002431,0.36466552895535165,0.8247662912460142,0.24360398867132738,-0.35698279162927204
407,10.218610048294067,0.7045,-0.0462,0.1028,-9.629,-0.217,1.576,0.003113,-0.006188,-0.00032,0.36336058423551865,0.823621916936632,0.24508748208917014,-0.35992797875247345
408,10.244178771972656,0.7122,-0.0497,0.1143,-9.643,-0.198,1.551,0.009205,-0.003546,-0.000721,0.3585167204132161,0.8237412535831837,0.24546190243224,-0.3642314686894892
409,10.27079176902771,0.7089,-0.0473,0.1063,-9.661,-0.212,1.551,0.004662,-0.005779,-0.000339,0.3547010687283374,0.8233345361245183,0.24655889613461204,-0.3681251203116692
410,10.2947678565979,0.7128,-0.0476,0.1159,-9.649,-0.233,1.533,0.015109,-0.000681,0.00036,0.3459024750893215,0.8256871593464968,0.24343078031796067,-0.3732742260204725
411,10.319260835647583,0.7053,-0.0451,0.1007,-9.66,-0.216,1.51,0.019826,0.002237,-0.003112,0.3482614828295039,0.8240915414154587,0.25331399234078306,-0.36799333177282173
412,10.345239162445068,0.7138,-0.0495,0.1141,-9.652,-0.218,1.529,0.028816,-0.001032,-0.00446,0.358027111930767,0.8169239318827848,0.27337930296727897,-0.3601605660657618
413,10.371190786361694,0.7106,-0.0497,0.1061,-9.629,-0.206,1.563,0.03677,-0.000194,-0.007833,0.3695384787950623,0.8078707865599644,0.29758568916108313,-0.34961244617338616
414,10.395057916641235,0.7151,-0.0481,0.1157,-9.677,-0.21,1.515,0.042518,-0.009034,-0.012268,0.39746471549622464,0.7849381580705579,0.3408088724751638,-0.3312751128329935
415,10.419006109237671,0.706,-0.0454,0.101,-9.648,-0.073,1.504,0.040417,-0.010021,-0.005812,0.4145703715703987,0.7652833539577372,0.37366806218014625,-0.3206945189393058
416,10.446451425552368,0.7153,-0.0478,0.1135,-9.579,-0.076,1.551,0.064233,-0.014012,-0.001829,0.39340806221443186,0.7707032653144239,0.3717769872188329,-0.33619703328979267
417,10.541408061981201,0.7128,-0.0459,0.1058,-9.583,0.02,1.544,0.084905,-0.014818,0.008127,0.3176637569093793,0.8051613548269121,0.3211394168669079,-0.38428427651140296
418,10.547486543655396,0.7164,-0.0452,0.1149,-9.628,0.01,1.516,0.102214,-0.018096,0.022715,0.1589164794796825,0.8573052145445874,0.19035769707701422,-0.4511510487940578
419,10.549312114715576,0.7097,-0.0446,0.0986,-9.72,-0.147,1.633,0.081903,-0.029144,0.029891,-0.07506196149156101,0.8692077171283236,-0.018957652103527928,-0.4883484963100934
420,10.580533981323242,0.7179,-0.0486,0.1125,-9.761,-0.223,1.369,0.056256,-0.034907,0.030995,-0.32100811339505597,0.7958448017638026,-0.25288222127795196,-0.446805802112741
421,10.582433462142944,0.7164,-0.0462,0.1013,-9.661,-0.175,1.416,0.04516,-0.049949,0.022125,-0.4944422688747242,0.6689913990811426,-0.42221044485317843,-0.3601606460488871
422,10.59680724143982,0.7203,-0.047,0.1125,-9.567,0.061,1.405,0.056955,-0.054228,0.026369,-0.6277475229358087,0.49106380117993936,-0.5571421471518895,-0.2331995250545067
423,10.626884698867798,0.7136,-0.0446,0.0944,-9.9,0.272,1.396,0.109974,-0.20818,-0.002813,-0.7090956279955742,0.25159220583698183,-0.6531146296505852,-0.08559224763974138
424,10.645134449005127,0.7211,-0.0468,0.1088,-9.638,0.038,1.533,0.139298,-0.069147,0.019786,-0.7227101523413961,-0.021874806862101193,-0.6799131724866749,0.12218676854114269
425,10.670351505279541,0.7187,-0.0497,0.0974,-9.616,-0.28,1.391,0.165094,-0.06217,0.002038,-0.6793598256406759,-0.21081926876840723,-0.6565204365576154,0.2510107161131231
426,10.694988489151001,0.7232,-0.047,0.1099,-9.593,-0.374,1.428,0.136511,-0.076948,-0.013247,-0.6367079353993476,-0.3015721042321648,-0.6515787153674819,0.2812515753352268
427,10.723294019699097,0.7157,-0.0443,0.0883,-9.523,-0.023,1.585,0.055799,-0.085624,-0.010641,-0.6044714932253143,-0.3381512696817316,-0.6753809072944883,0.2532361797861144
428,10.747181177139282,0.7247,-0.0462,0.1036,-9.6,0.011,1.684,0.012341,-0.069971,-0.000956,-0.565464103762379,-0.38345723279274707,-0.6892651338896252,0.24109017644702058
429,10.778680324554443,0.724,-0.0454,0.0932,-9.647,-0.233,1.599,0.023461,-0.043767,-0.01858,-0.5537877273850781,-0.37742351045992917,-0.7156231547332472,0.196860730363902
430,10.796714544296265,0.726,-0.0454,0.1025,-9.531,-0.403,1.56,0.041771,-0.024266,-0.039398,-0.5813646568026963,-0.2531330259745116,-0.7713683913192865,0.05412588895497378
431,10.821045398712158,0.7196,-0.0424,0.0868,-9.466,-0.268,1.753,-0.046725,-0.017395,-0.046671,-0.5813042198135159,-0.020435442985368008,-0.789874871851158,-0.19433343385817098
432,10.849290370941162,0.7276,-0.0449,0.102,-9.54,-0.107,2.072,-0.158247,0.003929,-0.033248,-0.5006084578193295,0.22445350026847416,-0.6963548245265385,-0.46271131014445316
433,10.886227130889893,0.7231,-0.0475,0.0932,-9.659,-0.429,1.928,-0.208388,0.011584,-0.023938,-0.35994404610431013,0.4045025988646937,-0.5190936182939085,-0.6613317976872916
434,10.90557599067688,0.7263,-0.0465,0.1052,-9.616,-0.278,1.77,-0.170618,0.002451,-0.025065,-0.18018547006200702,0.5118856091904885,-0.3031254483558591,-0.7833398253895146
435,10.927444458007812,0.7183,-0.0445,0.0881,-9.548,-0.411,1.597,-0.226199,0.032723,-0.03495,0.0736303869712998,0.5539821677035958,-0.007387569297944263,-0.8292332288329681
436,10.947027683258057,0.7273,-0.0486,0.1028,-9.572,-0.862,1.663,-0.301907,0.066382,-0.043137,0.41020932687369693,0.4545805539073988,0.3866853817211656,-0.6896080362917961
437,10.971984148025513,0.7231,-0.0513,0.0985,-9.833,-0.554,1.384,-0.341338,0.086843,-0.028656,0.6561816280444159,0.13318423616265124,0.6798613149193675,-0.2991257640706654
438,10.997233152389526,0.7257,-0.0516,0.1091,-9.753,-0.18,1.184,-0.215882,0.08451,-0.005904,0.6906292300013253,-0.09182920854322318,0.7171223731734759,0.01828018107524959
439,11.034476280212402,0.7185,-0.0478,0.0974,-9.651,-0.292,1.905,0.016132,0.011396,-0.066797,0.6121002363236476,-0.35831865772429017,0.6267887868030348,0.32260944957824367
440,11.047811031341553,0.7262,-0.05,0.1102,-9.423,0.163,2.384,0.093153,-0.011284,-0.133958,0.13654725659744882,-0.7206220348418495,0.15691828863732962,0.6613889780660351
441,11.082197904586792,0.7229,-0.0465,0.1041,-9.785,0.689,2.297,0.109332,-0.018329,-0.10494,-0.4499433490096908,-0.607373651239967,-0.4236151035061696,0.4991978310678362
442,11.098156929016113,0.726,-0.0462,0.1118,-9.844,0.848,2.456,-0.094948,-0.038647,-0.032658,-0.6536863716708904,-0.3706487582097634,-0.6184490886322115,0.22985723895342952
443,11.12175703048706,0.7191,-0.043,0.0995,-9.619,0.408,2.482,-0.239069,-0.100886,0.025275,-0.677421806469864,-0.39002798909877545,-0.5959157114675103,0.18401719665521074
444,11.147296667098999,0.7296,-0.0476,0.1113,-9.42,-0.053,1.78,-0.443402,-0.104432,0.052564,-0.6393801709503066,-0.5506742888642863,-0.44623157657737855,0.29804060905292157
445,11.172465801239014,0.7262,-0.05,0.102,-9.952,-0.027,2.124,-0.612389,-0.143007,0.0447,-0.62815161350781,-0.6148649535424583,-0.2562287060626478,0.40213615796422325
446,11.197967767715454,0.7306,-0.0513,0.1089,-9.869,0.162,2.267,-0.640279,-0.197992,0.061067,-0.5948610925301109,-0.5819153449554989,-0.015235182951930715,0.5543308588736755
447,11.225799083709717,0.7251,-0.0521,0.0916,-9.119,0.745,1.946,-0.627877,-0.167417,0.049568,-0.47522373447439353,-0.4359763759708306,0.20077835626317111,0.7374110478178444
448,11.24697756767273,0.7338,-0.057,0.1039,-9.147,0.841,1.808,-0.449756,-0.052162,0.010168,-0.42422285730021986,-0.26501719226307185,0.13547243504403156,0.8552473761972473
449,11.272139549255371,0.7302,-0.0567,0.0961,-9.37,0.13,2.155,-0.272399,-0.044116,-0.078886,-0.5723887554494407,-0.06210351412819249,-0.14929848143407554,0.8038807309604136
450,11.297312259674072,0.7344,-0.0573,0.1033,-9.812,0.106,1.802,-0.161968,-0.037363,-0.166729,-0.704503201912593,0.4809461979425011,-0.36670457600381184,0.37134047330909364
451,11.321759223937988,0.7262,-0.0508,0.0897,-9.506,0.197,1.568,-0.102481,-0.010199,-0.249116,-0.10611561628402615,0.975408190702008,0.18841771785278114,-0.042627468740779786
452,11.350329875946045,0.7343,-0.0494,0.1028,-9.291,0.495,1.685,0.008801,0.042742,-0.324029,0.24188696968009,0.20343953218957328,0.5404796859728577,0.7797337748822685
453,11.373002767562866,0.7313,-0.043,0.0967,-9.051,0.126,2.366,0.015892,0.015046,-0.339843,-0.6287237427659219,0.40345590379314505,-0.25797694192586385,0.6126807377512754
454,11.397417306900024,0.7332,-0.0381,0.1053,-9.394,0.458,2.479,-0.064845,-0.012736,-0.319652,-0.05714746609263698,0.9274607061258702,0.32938248518283875,0.16750517653633934
455,11.42911148071289,0.7266,-0.0319,0.0927,-9.364,0.704,2.327,0.003172,-0.002003,-0.311975,0.05589289721046395,0.3498562837773739,0.46837419063255,0.8093838287810117
456,11.45225214958191,0.7339,-0.0314,0.1079,-9.53,0.437,2.115,0.111205,-0.035814,-0.329367,-0.49319316557729515,0.45099127947092954,0.02503300762006902,0.7434653427016719
457,11.475486040115356,0.7301,-0.0249,0.1021,-9.407,-0.097,2.258,0.174353,-0.045647,-0.341499,-0.4218741382371353,0.756529710171171,0.27791287101736606,0.41527032790446655
458,11.500592708587646,0.7346,-0.0217,0.113,-9.694,-0.773,2.538,0.004161,-0.047497,-0.374046,-0.3345521229606311,0.5845118501300478,0.4796808992048215,0.5624295591610893
459,11.536082983016968,0.7267,-0.0122,0.0997,-9.575,-0.327,2.15,-0.235311,-0.013095,-0.330556,-0.3505157357625789,0.6432262633365416,0.36039482830681563,0.5775069357736136
460,11.55501127243042,0.7358,-0.0125,0.1157,-10.608,-0.689,2.156,-0.27891,0.045862,-0.386417,-0.1486200493123888,0.5748182961524024,0.3347600164805177,0.7317320129096414
461,11.57429552078247,0.7336,-0.0063,0.1123,-10.437,-0.334,2.031,-0.023658,0.078623,-0.35826,-0.39100201208885704,0.6068823596123296,-0.0057493106953064865,0.6919379838976649
462,11.60155963897705,0.7371,-0.0039,0.1211,-10.55,-0.977,2.852,-0.147635,0.056432,-0.266164,-0.18891318589644715,0.9000599416273329,0.14104108169674606,0.36648509239267535
463,11.635149002075195,0.7301,0.0007,0.1128,-10.943,-1.538,2.863,-0.628982,0.07067,-0.179301,0.3231908694903735,0.6940275912059326,0.28873184598092516,0.5748976305738217
464,11.655115365982056,0.7391,-0.0048,0.1307,-11.766,-0.553,2.309,-0.833563,0.183656,-0.19076,0.3089297706035258,0.2208742558019972,-0.38195362500070296,0.8425487453599283
465,11.673624992370605,0.7371,-0.0042,0.1293,-12.757,-0.085,1.73,-0.666633,0.19492,-0.285762,0.358899630040745,0.5616200315756833,-0.7448915169702827,0.030176541141359897
466,11.702900409698486,0.7383,-0.0059,0.1405,-13.085,0.728,1.929,-0.616718,0.176188,-0.214742,0.9656914626122829,0.022939625572379975,-0.25320825162120275,0.05290892105574326
467,11.725341081619263,0.7319,-0.0039,0.1306,-12.009,1.617,2.7,-0.545107,0.180663,0.022754,0.6061366102953937,-0.5350070689630676,-0.5727535344596507,0.1353485669785064
468,11.750000238418579,0.7418,-0.0145,0.1511,-11.075,2.401,2.296,-0.582195,0.211473,0.346427,0.4344853355885231,-0.6541001966464146,-0.5657414039672979,-0.2516189375678246
469,11.77710247039795,0.7394,-0.0285,0.1534,-9.506,1.819,1.374,-0.531011,0.266993,0.695563,0.2593717205245034,-0.5562464580116865,-0.297804185388336,-0.7311831888841547
470,11.799703121185303,0.7429,-0.0499,0.1664,-8.275,1.356,1.565,-0.45816,0.18878,0.957673,-0.2873709329712936,-0.8847967894164724,-0.3105341242589576,-0.19524637254564575
471,11.823654174804688,0.7371,-0.0649,0.1575,-9.636,1.236,1.781,0.003734,0.264301,1.160027,-0.2799764105395738,0.5067587746196044,-0.23444897020273867,-0.7809240899461923
472,11.851006746292114,0.7438,-0.0941,0.1795,-10.29,0.776,1.722,0.194831,0.343974,1.434524,-0.4428271979939791,0.7266520890105974,-0.522012997172261,0.05816566888267605
473,11.877607345581055,0.7377,-0.1235,0.1818,-10.722,0.051,1.523,0.264519,0.408694,1.706355,-0.06587566906003184,0.7752827525755837,-0.05544747293062849,0.6257176899611573
474,11.89877438545227,0.7336,-0.1556,0.1965,-11.343,-0.073,1.117,0.139084,0.345968,1.859024,-0.10007858325572697,0.9412829946172174,0.01323137073709027,0.32217313985865986
475,11.924849033355713,0.7214,-0.1823,0.1867,-11.087,1.063,0.779,0.193599,0.12196,2.043832,-0.23349377003934232,-0.42410705243241653,0.7201635548312718,-0.4969691355835773
476,11.95098328590393,0.7211,-0.2225,0.2033,-11.369,1.27,-0.045,0.431648,0.145457,2.156148,-0.07786554680816007,-0.43510047279976194,0.680690078378494,-0.5841965015187695
477,11.973750591278076,0.7058,-0.2583,0.1977,-11.699,1.281,1.284,0.33744,-0.020966,2.252007,0.543581865866234,0.5503528551927197,0.48129953564897426,-0.412287820420015
478,12.002052068710327,0.6949,-0.2936,0.2041,-11.697,1.527,1.772,0.256959,-0.199596,2.260104,0.20588107100267014,0.6653553799781745,-0.2143983801951716,0.6847981728265481
479,12.02577805519104,0.6764,-0.3203,0.1887,-11.122,2.05,2.043,0.839747,-0.286947,2.417241,-0.41270146387949647,0.521375741951365,-0.41676134810713683,-0.6198022395412153
480,12.052062034606934,0.667,-0.3583,0.1996,-11.139,1.516,2.119,0.92808,-0.537517,2.332424,0.5026959560301834,-0.3728045344337533,-0.40541040305385884,-0.6663002026055825
481,12.083652019500732,0.6477,-0.3885,0.1858,-9.787,1.594,0.434,0.417202,-0.747706,2.22183,-0.14130529864946678,0.764734287683519,0.30584566730754487,-0.5492474029105358
482,12.101526737213135,0.6329,-0.4141,0.1845,-9.14,1.766,1.069,0.317536,-0.793684,2.088241,-0.7392295397215338,-0.16865709959535266,0.5400053973531164,0.365360973817231
483,12.12813138961792,0.6127,-0.4334,0.1616,-8.866,3.168,0.836,0.564352,-0.818814,1.990565,-0.17567976960482393,-0.4177465374036202,-0.7223890273458453,0.5222820523521797
484,12.152921199798584,0.6025,-0.4623,0.1673,-8.362,3.205,0.52,0.585506,-0.739458,1.940507,0.7255476984521882,0.52906616485772,-0.35764003162678837,0.2564432456733188
485,12.198626279830933,0.5818,-0.483,0.1545,-7.888,2.63,0.891,0.654115,-0.709582,1.862085,0.49518963225334567,0.26898367031696774,0.6302786366522704,-0.5340260793176345
486,12.199835777282715,0.5661,-0.5024,0.1631,-7.243,2.432,0.598,0.888133,-0.535593,1.664501,0.12078192224770731,-0.6801618325246286,-0.09061864068659584,-0.7173422271099071
487,12.233323812484741,0.5462,-0.5072,0.1498,-7.202,2.344,0.724,0.812522,-0.49226,1.4117,0.02321545658971233,-0.8205513635763818,-0.43127334781833143,0.37437922187247563
488,12.253071546554565,0.5375,-0.5256,0.163,-6.963,2.25,1.085,0.59401,-0.539004,1.210728,-0.4844780554042281,-0.5187435154555897,0.19223641148151707,0.6776660985361616
489,12.276166200637817,0.5213,-0.5331,0.1548,-6.025,2.079,1.029,0.448624,-0.483378,0.963287,-0.7410326263483142,-0.2806817753406071,0.6099411165635109,0.007760283772002441
490,12.302422523498535,0.5131,-0.5388,0.1637,-5.691,3.457,1.057,0.342295,-0.283603,0.712264,-0.4526343522249687,-0.09158449055104645,0.6608529741383089,-0.5916145458395524
491,12.326758623123169,0.5017,-0.5382,0.1487,-5.74,4.297,2.059,0.032949,-0.400727,0.504641,-0.008646954987633383,0.11506701131063127,0.6892165052573923,-0.7153079210789349
492,12.354138851165771,0.5028,-0.549,0.1596,-5.593,5.018,1.112,0.134505,-0.375095,0.265126,0.40980849331053065,0.06378655127194585,0.773170716314493,-0.47978674233571517
493,12.379226446151733,0.4981,-0.5487,0.1519,-5.348,5.809,1.538,0.395853,-0.339093,0.103464,0.6179525011362828,-0.04533108938465191,0.743329276097026,-0.2520741676008955
494,12.401342868804932,0.4994,-0.5469,0.163,-5.076,6.479,0.526,0.380242,-0.266979,-0.046665,0.6926549108729456,-0.15545076728386886,0.697461816628858,-0.09803697128747685
495,12.426530838012695,0.4978,-0.5404,0.1516,-5.183,6.333,0.858,0.179853,-0.280624,-0.178747,0.6879763544685732,-0.3828474308154157,0.6110329921868118,0.08218918949228732
496,12.454644918441772,0.5055,-0.5453,0.1639,-6.123,8.43,0.783,0.080113,-0.216575,-0.136439,0.6208648334673041,-0.6141985455701818,0.439198027382904,0.21069432343102176
497,12.477511167526245,0.5053,-0.542,0.1557,-7.392,8.906,2.573,0.209445,-0.398212,-0.02529,0.3999717250378068,-0.7809481165957305,0.1584356639233922,0.4528143093509926
498,12.502522945404053,0.5071,-0.5404,0.1618,-7.434,6.695,0.083,0.585907,-0.209501,-0.213069,0.31293106153796674,-0.7711212482492323,-0.07325386552163773,0.5496180877749611
499,12.537578344345093,0.506,-0.5307,0.1557,-7.444,6.333,0.758,0.487659,-0.056031,-0.478422,0.5784518984803129,-0.5909924516493296,-0.19542305273249125,0.5271917617895322
500,12.557922840118408,0.5174,-0.5313,0.1742,-7.737,7.374,1.006,-0.448388,-0.058529,-0.676813,0.5979159172303661,-0.3894914355946633,-0.5929449473054162,0.37310758098161895
501,12.578745126724243,0.5237,-0.5283,0.157,-8.93,7.428,1.388,-0.661696,-0.158487,-0.72238,0.5788212653443876,-0.3323654672022727,-0.7007852704668224,-0.25179186582032315
502,12.604532718658447,0.5339,-0.5253,0.1568,-9.24,5.922,1.682,-0.467788,-0.131362,-0.882669,0.7785367002596031,-0.5054176327647346,-0.2216318118320414,-0.2988527443799493
503,12.627458810806274,0.5411,-0.515,0.1405,-9.739,5.756,1.961,0.059708,0.030951,-1.164836,0.5702412815283697,-0.7287471720832931,0.1293160307599503,0.3564124074860152
504,12.65354299545288,0.5599,-0.5099,0.1518,-10.138,4.798,2.516,-0.271563,0.030524,-1.43406,-0.3614936520924745,-0.37623847710039404,0.13549451187298822,0.8422637265716255
505,12.679089307785034,0.5762,-0.4894,0.1366,-9.697,4.354,2.678,-0.433927,-0.101508,-1.544429,-0.44268999546476384,0.5627375633576601,0.4067328808016499,0.5673802661147829
506,12.703707218170166,0.5931,-0.4775,0.1361,-9.242,3.627,2.067,-0.363154,-0.076926,-1.551477,-0.04887658040520157,-0.2521155497323035,0.33286302149983304,0.9073318237497647
507,12.734782457351685,0.6026,-0.457,0.1198,-9.221,3.526,1.558,-0.509688,-0.076828,-1.583096,-0.5151831542929044,-0.37504508412013743,-0.7351528422122736,-0.23125267781660008
508,12.758347034454346,0.6251,-0.4487,0.1248,-9.279,4.071,1.242,-0.488873,-0.021059,-1.577529,0.08880037107269735,-0.6624317435503971,-0.07046432850066325,-0.7404954136543201
509,12.776383638381958,0.6388,-0.4282,0.1136,-9.062,3.963,1.578,-0.376535,0.06312,-1.520318,-0.5304337598256113,-0.11697950192576315,-0.4817243133127374,-0.6876754383645223
510,12.805155277252197,0.6536,-0.4134,0.1159,-9.048,3.113,2.097,-0.406773,0.080155,-1.44435,0.5661239057240264,0.6721804685988566,0.4411806769462051,-0.1817601476982329
511,12.82697868347168,0.6605,-0.3923,0.1025,-8.824,2.768,2.716,-0.469098,0.041466,-1.357917,0.3243104565892382,0.39512653445115065,-0.26386806108354977,0.8179678452479118
512,12.852063417434692,0.6774,-0.3834,0.1099,-8.941,3.117,2.4,-0.540611,0.114474,-1.220667,0.7064052659584805,0.2779071509982478,-0.12620547158896675,0.6386167822655243
513,12.87804126739502,0.6844,-0.3686,0.0999,-8.776,2.1,2.221,-0.581648,0.153989,-1.166826,-0.4504036200076219,-0.13636398402656555,-0.8125761763126433,0.34389155359438023
514,12.903738021850586,0.6944,-0.3529,0.1043,-8.715,2.386,2.155,-0.634451,0.187002,-1.182288,-0.006656286141327794,0.5088414814621556,0.60464813529117,-0.6127288740439075
515,12.928706407546997,0.697,-0.3378,0.0898,-9.142,2.479,2.421,-0.599919,0.157979,-1.178784,-0.7196567746953333,-0.10939656176488169,0.5619573935943474,0.39284908895628196
516,12.953266620635986,0.7125,-0.3276,0.0993,-8.665,2.322,2.659,-0.507863,0.118991,-1.101512,-0.6421707127676823,0.1603703869587825,0.524669550154738,0.5353690108612581
517,12.9780752658844,0.7152,-0.3111,0.0903,-8.66,2.261,2.549,-0.533188,0.092166,-1.025564,0.04563710277386078,0.7529661297216714,0.6550867497970418,-0.04266863699162534
518,13.002750635147095,0.723,-0.2993,0.0952,-8.023,1.307,2.814,-0.371889,0.069381,-0.927799,-0.6963093046250522,-0.15721365857791705,-0.5422823293981023,0.44313326784579193
519,13.03023076057434,0.722,-0.2836,0.0833,-8.264,1.118,2.496,-0.343614,0.017967,-0.88325,0.7181794960200301,-0.2514256099405786,0.6477935660362903,0.036971204530148294
520,13.053156852722168,0.7349,-0.2758,0.0941,-9.079,1.923,2.459,-0.384798,0.02215,-0.83741,-0.23169919792767157,0.23152494560610462,-0.31976168189493426,-0.8890805070596738
521,13.095675706863403,0.7381,-0.261,0.0833,-8.725,1.998,2.189,-0.301587,0.017394,-0.789988,-0.2486702304143806,-0.9430593344186191,-0.21557999988399487,-0.04824387962826928
522,13.103464841842651,0.7453,-0.251,0.0874,-8.829,2.264,1.527,-0.158056,0.031895,-0.760186,0.29348000928870344,-0.5722012975097401,0.4508731659365917,-0.6190060965082549
523,13.128492832183838,0.7423,-0.2354,0.0755,-9.106,1.75,2.1,0.026253,0.08138,-0.726315,-0.2244035523988406,-0.506763229489118,-0.1056835329798014,-0.8256301022645961
524,13.153916120529175,0.752,-0.2303,0.0881,-8.858,1.25,2.017,-0.051104,0.090619,-0.645293,-0.01274990083110343,-0.7958692862628027,0.03678914884431672,-0.6042152577845453
525,13.179198503494263,0.7512,-0.2179,0.0812,-9.527,1.399,2.84,-0.07407,0.075119,-0.621598,-0.03766080971209987,-0.7172989639656351,0.02646761753445062,-0.6952433566224892
526,13.208225727081299,0.755,-0.2098,0.0879,-9.197,1.568,2.488,-0.018096,0.073894,-0.630813,0.07479923397536287,-0.6662372506948468,0.1019408866528298,-0.7349428930275506
527,13.229212760925293,0.7511,-0.1974,0.0802,-9.507,1.473,1.956,0.019554,0.045176,-0.643458,-0.09794820888486508,-0.6138963890412757,-0.14863097196945368,-0.7690553985700543
528,13.254839420318604,0.764,-0.1923,0.0928,-9.18,1.521,2.514,0.203268,0.05378,-0.612508,-0.7672057413660782,0.3868291537409306,0.46111440914138335,0.2216575239264276
529,13.281260013580322,0.7634,-0.1796,0.0876,-9.065,0.365,2.6,0.172032,0.04956,-0.59863,-0.5846837847478643,0.00250271235985311,0.7381319082208657,0.33660049665735825
530,13.304402828216553,0.7667,-0.171,0.0919,-9.354,0.293,2.349,-0.152886,0.035523,-0.514749,-0.6581267551591337,0.3059405270746526,0.687571068436313,-0.02270669254515928
531,13.327849388122559,0.762,-0.1626,0.0783,-9.607,0.301,2.819,-0.340543,0.093474,-0.413146,-0.6580179870149876,0.09188469321810816,0.6275368271749878,0.4059150926685373
532,13.356801986694336,0.7716,-0.1626,0.0898,-10.003,-0.252,2.546,-0.474992,0.07235,-0.359697,-0.5804768395126187,0.5636239517372585,0.5229386389444126,0.26816013819448103
533,13.381820917129517,0.7691,-0.158,0.0821,-10.182,0.027,2.227,-0.510446,0.077492,-0.306009,-0.2865213375940239,0.4780398568070761,0.49141332155102635,0.6692506001561668
534,13.404114723205566,0.7689,-0.1553,0.0904,-12.132,0.002,2.987,-0.644897,0.089578,-0.329953,-0.273381722804948,0.6910231806030928,0.017686650221430456,0.6689070039320331
535,13.430315017700195,0.7635,-0.1513,0.0784,-13.13,-0.157,1.896,-0.812119,0.163846,-0.32394,0.32653879704422906,0.6859096048941136,-0.0873828030385036,0.6444103302027696
536,13.458595514297485,0.7733,-0.1535,0.0896,-12.71,0.431,1.675,-0.673601,0.266548,-0.224561,0.3624460526712049,0.37844445900428586,-0.639850458349453,0.5621423674675398
537,13.48243761062622,0.77,-0.1518,0.0837,-12.267,0.548,3.265,-0.545514,0.221085,-0.163713,0.6638796395667775,0.459965250043712,-0.5896061333922957,0.007771768595196904
538,13.510791778564453,0.7702,-0.1524,0.0896,-11.866,1.225,3.296,-0.536694,0.21491,0.010038,0.9343590128798019,-0.03182988532833805,-0.35403169403697904,0.02493297149506613
539,13.533960342407227,0.764,-0.1537,0.0765,-11.107,1.816,2.485,-0.711055,0.294963,0.327689,0.8902720705578446,-0.4369700825685351,-0.10832185737374346,-0.06884157566324371
540,13.555790424346924,0.7689,-0.1691,0.0884,-9.157,3.457,1.743,-0.617049,0.342063,0.728145,0.39603916262698585,0.30267672726462824,0.01801407006424524,-0.8667267583949455
541,13.581532955169678,0.7602,-0.1861,0.0849,-8.977,3.967,2.132,-0.249123,0.384147,1.173523,0.6887619248313521,0.09401829226602204,0.7186165708213011,0.018915490028700355
542,13.605524063110352,0.7519,-0.2076,0.0951,-10.346,3.443,1.441,0.035031,0.394507,1.582416,-0.27941569888741213,-0.009501530724695555,-0.15784954842290327,0.9470586614311873
543,13.6296968460083,0.7364,-0.2324,0.086,-12.349,3.072,0.948,0.620107,0.188547,1.835295,-0.3587829834758462,-0.8506534579681413,0.34452966525233897,-0.17018453212946733
544,13.6556556224823,0.7311,-0.2602,0.1055,-11.432,1.79,1.982,0.727085,0.212301,2.141813,-0.2823144241168136,-0.2607665776921581,-0.08426182916356438,-0.9193472151697214
545,13.6995530128479,0.7127,-0.2955,0.101,-10.779,2.395,1.936,0.610351,0.20309,2.407227,-0.6247841711848096,0.10000907248211205,-0.6810848571309049,-0.3684648453314822
546,13.705129623413086,0.6917,-0.3292,0.1116,-10.307,2.019,1.779,0.457933,0.119395,2.724301,-0.32862444489460774,0.2686105118963209,0.2483031560476063,0.8707467541216019
547,13.739214897155762,0.6665,-0.3581,0.1003,-11.316,2.325,2.125,0.864674,-0.097552,2.824215,-0.8091059024032502,0.11445426009387269,-0.5607351581036077,0.13350634258007527
548,13.769548892974854,0.6464,-0.3961,0.1156,-11.498,2.472,1.654,1.324332,-0.213686,2.93256,0.7152590553211361,-0.13814326756960305,-0.6803722292269317,0.08009089275994152
549,13.780718803405762,0.6125,-0.4279,0.117,-11.504,1.516,0.643,1.499671,-0.23468,2.778742,-0.3565269264587214,0.2518864798171418,0.10035705601552158,-0.8940750602176103
550,13.818500518798828,0.5877,-0.4511,0.1252,-9.558,1.349,0.136,0.821728,-0.268748,2.465426,0.5193786113373681,-0.16380254035570319,0.4152648775264061,-0.7286766548691292
551,13.830350875854492,0.5608,-0.4697,0.1132,-8.154,1.897,0.476,0.240896,-0.432185,2.265904,-0.09462908740147674,0.8845266660685921,0.4137498278875073,0.1935690903894597
552,13.857712507247925,0.5418,-0.4953,0.1185,-7.527,2.472,1.005,-0.078326,-0.618252,2.148953,-0.598671187497913,-0.10291764107329034,-0.27810071297148997,0.7440838406123985
553,13.901365518569946,0.5152,-0.5128,0.1046,-7.516,3.438,0.951,0.28084,-0.466902,2.019835,0.0261796547315013,-0.7000136165493092,-0.6579316558201213,-0.27644438607700006
554,13.90730333328247,0.4923,-0.5268,0.107,-7.467,2.965,0.64,0.214628,-0.46263,1.841018,0.7775433869910817,-0.035728750516706105,0.09557763732694155,-0.6204954898917088
555,13.933644771575928,0.4687,-0.5367,0.0942,-7.196,2.771,0.639,0.333915,-0.449389,1.600165,0.2252293470720527,0.485793251611145,0.8346470792788446,-0.12899965487497198
556,13.971238374710083,0.4568,-0.5497,0.1026,-7.092,2.735,0.885,0.352982,-0.440837,1.315274,-0.7035358303880482,0.14111009681836334,0.6794566943534358,0.15317922977484022
557,13.981898546218872,0.4382,-0.5567,0.0984,-6.138,2.634,0.496,0.476648,-0.35211,1.014863,-0.9508440792887577,-0.26587535619791647,-0.04725505784215443,0.1515677780944235
558,14.013650178909302,0.4267,-0.5594,0.1033,-5.557,2.622,0.783,0.280141,-0.27764,0.715008,-0.6848062656640598,-0.3232755626287939,-0.5914503019389583,0.2769834461670895
559,14.030827045440674,0.4166,-0.5567,0.095,-5.298,3.218,2.065,0.177605,-0.310605,0.403894,-0.4629153865736457,-0.02017907789207493,-0.8308228470302392,0.30827835885991955
560,14.057147026062012,0.4181,-0.5624,0.1069,-5.026,4.206,0.755,0.049934,-0.231571,0.108925,-0.36901175172829404,0.2948949445296791,-0.8530785218210075,0.22164010103078863
561,14.083847045898438,0.417,-0.5621,0.0973,-5.07,5.695,0.726,-0.051339,-0.148715,-0.046081,-0.3409966383618105,0.4602659749712143,-0.8124443572637112,0.10867700428378367
562,14.121163129806519,0.4171,-0.5607,0.1003,-4.872,5.579,2.259,-0.172644,-0.281704,-0.258564,-0.21825700129530065,0.7063093210208616,-0.634909236014152,-0.22445776094525774
563,14.138015747070312,0.4193,-0.5542,0.0857,-5.196,6.441,2.195,-0.089722,-0.323827,-0.47943,0.06948117754094443,0.812191094927734,-0.13408418694588053,-0.5635063638493131
564,14.163291931152344,0.4291,-0.558,0.0967,-5.547,7.158,1.787,0.062408,-0.328817,-0.623887,0.3882961701770468,0.4801581871974019,0.475874039953512,-0.626273181280714
565,14.192814111709595,0.4385,-0.5513,0.0875,-6.72,10.696,0.413,-0.377446,-0.307488,-0.581999,0.4566428315187898,-0.2703214522050302,0.7692314310647588,-0.3559306707244111
566,14.206356048583984,0.4414,-0.5505,0.0817,-9.508,12.627,2.683,-0.373922,-0.539775,-0.181838,-0.07566121372762948,-0.8194164939239998,0.5363126914016466,0.1876184619489345
567,14.230411291122437,0.4429,-0.5432,0.0777,-9.54,6.351,0.119,1.275212,-0.263881,-0.463426,0.27045705188118857,-0.9487641349927232,0.13878398204629366,-0.08624735107016399
568,14.257404088973999,0.4539,-0.54,0.0925,-7.965,5.227,0.354,-0.3488,-0.268231,-0.824445,0.10708799455777952,-0.8528603108803773,-0.21574266254929592,-0.4632672609873915
569,14.28140926361084,0.4644,-0.5319,0.082,-8.187,5.094,2.13,-0.479595,-0.093672,-1.015889,0.3584074902788503,-0.5170740412092732,0.07306609803635228,-0.773847434664785
570,14.321745872497559,0.4754,-0.5251,0.0779,-10.126,6.539,1.536,-0.382795,0.027616,-1.032695,0.5522201055746063,-0.5572614087591041,0.606269286638558,-0.1301930466106518
571,14.33091688156128,0.4834,-0.5146,0.0647,-10.573,5.675,3.161,-0.258596,0.050976,-1.132482,0.3366065069777138,-0.45996672255642257,0.23420120051308685,0.7875763272719629
572,14.358270645141602,0.5014,-0.5127,0.0737,-9.874,3.527,3.133,-0.327799,0.042468,-1.417829,0.1567751515039397,0.33010712475421006,-0.3663372520206808,0.8557148215611095
573,14.386690616607666,0.5176,-0.4962,0.059,-9.75,4.041,2.831,-0.613705,-0.057172,-1.549938,0.7564334637062146,0.34873960895334566,0.029898889627593406,0.5525352084089514
574,14.433919429779053,0.5358,-0.4827,0.0553,-9.126,5.115,2.51,-0.481546,-0.156244,-1.550896,-0.3943792772437721,-0.6315055668935278,-0.32880208361814334,0.5809947456488153
575,14.436768531799316,0.5473,-0.4663,0.04,-9.034,5.406,1.278,-0.229696,-0.093718,-1.469507,-0.755668482505272,-0.05445754907783447,0.25417063069893253,-0.601162881743976
576,14.465769052505493,0.5682,-0.459,0.0496,-9.018,3.853,0.449,-0.100993,0.024794,-1.412838,-0.7379364952609452,-0.5435488957804504,0.34491252791715094,-0.20258251391382898
577,14.483983755111694,0.5826,-0.4399,0.0421,-9.18,2.08,0.516,-0.222547,0.134928,-1.432453,-0.6196228847762757,0.3942126716868755,-0.3336400911567235,-0.5910567990607629
578,14.508243083953857,0.5957,-0.4261,0.0433,-9.97,1.414,1.687,-0.498234,0.162442,-1.476573,0.8816332128006055,0.4654475959879508,0.015005807229547523,-0.07652606892627864
579,14.533045530319214,0.6054,-0.4078,0.0313,-10.138,2.214,3.026,-0.6531,0.188561,-1.431684,0.703246727540609,0.16386069056034963,-0.6910004191302793,-0.033348688944067506
580,14.55749773979187,0.6238,-0.3965,0.0413,-9.077,3.298,3.301,-0.604494,0.164379,-1.319116,0.7441955259223372,-0.5603203224094323,0.04812208629658843,0.3604142343229934
581,14.587176322937012,0.6348,-0.3811,0.0314,-8.093,2.963,3.531,-0.369378,0.102983,-1.236249,-0.8119246707091609,0.2787617562997998,-0.5028764428729752,-0.10092321597083177
582,14.610314130783081,0.6447,-0.3673,0.0342,-7.874,3.389,2.694,-0.444854,0.051478,-1.221565,-0.039299946316632514,0.33398196930351504,0.8251135237177417,0.453981531978722
583,14.634928226470947,0.65,-0.3495,0.0224,-7.581,3.072,2.628,-0.333929,-0.024253,-1.209232,-0.39748842415205454,0.5301086815208804,0.47731630215620563,0.5771974412081502
584,14.660156011581421,0.6679,-0.3388,0.0316,-7.82,3.491,1.81,-0.334741,0.022619,-1.117149,-0.3547018434019431,0.9089399727601823,0.20393560488579293,0.08015608065423471
585,14.686650037765503,0.6757,-0.3228,0.0248,-7.933,2.456,1.859,-0.310111,0.007272,-1.022736,-0.46283095274097447,-0.27232969554444003,-0.23611672690839197,0.8098598257622256
586,14.710439682006836,0.6815,-0.3099,0.0281,-8.557,2.113,2.046,-0.333547,0.046849,-0.914522,0.6979300725276556,0.1102068708745228,0.7006870168594701,-0.09892301996079766
587,14.735672950744629,0.682,-0.2959,0.0186,-8.683,2.23,2.004,-0.33586,0.053325,-0.777386,-0.5884923240828792,0.06309143693171401,-0.6072423063026189,-0.530050032089141
588,14.75866985321045,0.6923,-0.2883,0.0238,-8.66,2.487,2.37,-0.203945,0.023792,-0.684855,0.37691432354298215,-0.8083810108876495,0.4521515317412118,-0.003837484654582418
589,14.79091763496399,0.6949,-0.2775,0.0162,-8.771,2.182,1.871,-0.233013,0.019383,-0.579727,-0.40415732788151115,-0.12165511198441609,-0.20315345849874078,-0.8835075327057129
590,14.813453197479248,0.6974,-0.2697,0.0202,-9.151,1.716,2.473,-0.17271,0.050513,-0.513237,0.14907115810840643,-0.7901047519817528,0.4909196375613076,-0.33542537198719136
591,14.834276914596558,0.6968,-0.2603,0.0115,-9.449,1.293,2.416,-0.146345,0.018243,-0.515098,-0.509667850431418,-0.49871073519981746,-0.06764826193172677,-0.6978180260574326
592,14.859176635742188,0.7056,-0.2584,0.0222,-9.616,1.191,2.52,-0.15039,0.00669,-0.526325,-0.04908169977418808,-0.6664879694674292,0.5006504799589981,-0.5502125682127632
593,14.883947134017944,0.7051,-0.2479,0.0145,-9.361,1.565,2.588,-0.127114,-0.001043,-0.550992,-0.478722426852468,-0.5472689688344092,0.15702114999121644,-0.6683306608519782
594,14.909695863723755,0.7071,-0.2406,0.0164,-9.523,1.541,1.915,0.006233,0.04416,-0.536449,-0.22244562138651205,-0.6743740846868616,0.42415590305010353,-0.561986929862677
595,14.935302734375,0.7057,-0.2293,0.0079,-8.851,1.443,2.68,0.166871,0.068089,-0.509486,-0.28339846087282916,-0.6448773582854728,0.188803079975634,-0.6842308836477463
596,14.963392734527588,0.7144,-0.2263,0.0197,-8.818,0.888,2.652,0.053043,0.061733,-0.502476,-0.1466383481206831,-0.6918383799739775,0.14936852888789975,-0.6910469545792705
597,14.993231058120728,0.7135,-0.2198,0.0152,-9.301,0.568,2.573,-0.062585,0.035928,-0.486457,-0.4945230040935583,0.5072127441197946,0.46160712628200273,0.5339485851563065
598,15.009555578231812,0.7154,-0.2126,0.0192,-9.261,0.741,2.592,-0.153204,0.058044,-0.447962,-0.4277816047079648,0.5675600283556355,0.4797012007497494,0.5145534674702692
599,15.033076047897339,0.7127,-0.2056,0.0121,-9.615,0.463,2.704,-0.216833,0.060669,-0.427303,-0.41698227771912183,0.5454598575293356,0.3684772406158762,0.6267566090918866
600,15.061105489730835,0.7193,-0.2031,0.0201,-10.274,-0.063,2.643,-0.223265,0.056365,-0.471292,-0.30653874102594963,0.6657506826214751,0.33833282010897203,0.590204144069131
601,15.090345859527588,0.7197,-0.194,0.0154,-10.491,-0.105,2.447,-0.392086,0.061109,-0.457557,-0.21088101325617487,0.6600859723315606,0.19111754892630758,0.6951904702105371
602,15.109171152114868,0.7214,-0.1902,0.0149,-10.792,0.728,2.272,-0.377745,0.037004,-0.327852,-0.020913742680358727,0.7007614485249526,0.020586813800484497,0.7127918284645625
603,15.133356809616089,0.7158,-0.1842,0.0061,-11.604,0.633,2.493,-0.574546,0.017329,-0.211347,0.15984856113898482,0.6928773032029155,-0.22726734551058989,0.665371350354538
604,15.160248756408691,0.7217,-0.1856,0.0165,-12.993,0.655,1.883,-0.725139,0.10441,-0.091746,0.49739219257295125,0.5351363240306148,-0.4849523295136735,0.4806780206850884
605,15.183506727218628,0.7194,-0.1832,0.0098,-13.379,1.114,2.249,-0.475917,0.169234,-0.085072,0.630201489002766,0.2576644845618784,-0.6836712086950117,0.262771336061717
606,15.212268114089966,0.7182,-0.1818,0.0122,-12.439,1.543,2.747,-0.049667,0.214801,-0.017465,0.6149025211641634,0.24691518101365928,-0.7450816329840199,0.07603382826619784
607,15.23461103439331,0.713,-0.181,0.0058,-10.671,2.41,2.844,0.08596,0.238057,0.308791,0.43301045441679037,0.29904032969042166,-0.8471615857428111,0.07344436823973895
608,15.25945520401001,0.7154,-0.191,0.0212,-9.61,2.219,1.726,-0.137443,0.349897,0.805937,0.8991235759955262,-0.1430237802480438,-0.15704843371198762,0.38269672436694313
609,15.286223411560059,0.7057,-0.2069,0.0221,-9.406,1.946,1.291,-0.508945,0.556664,1.311726,0.8589525207273462,-0.2169919430067971,0.42733396619987446,0.18027963040276487
610,15.316416263580322,0.6962,-0.2282,0.0278,-9.887,2.694,1.116,-0.944896,0.518938,1.670008,-0.05159370581441913,-0.548136007975644,0.22009888205044617,0.8052586468961408
611,15.334592342376709,0.6811,-0.2509,0.023,-11.255,3.14,2.653,-0.406473,0.380045,2.010686,0.010592907280016661,-0.8212082168780787,0.4701440730868176,0.3232172727262895
612,15.36251449584961,0.6735,-0.2822,0.0369,-11.476,3.179,1.665,0.589219,0.416892,2.151094,0.13993986391440413,-0.7543951600797986,0.27884271469594785,0.5775391912215027
613,15.391109943389893,0.6532,-0.3102,0.0398,-10.988,2.533,1.88,0.448387,0.281077,2.383867,-0.07658519725372567,0.8860273457385104,-0.45492123657200123,-0.0462268177682557
614,15.411888599395752,0.6329,-0.3372,0.0477,-11.261,1.755,1.444,0.707219,0.21206,2.549473,-0.1453228818268182,0.40094957529650377,-0.30008857027497604,0.8532687431738155
615,15.437218427658081,0.6121,-0.3595,0.0458,-11.173,1.541,1.329,0.881714,-0.059306,2.45421,-0.09968527158651459,-0.8972692405530117,-0.31895415688065964,0.28851170235311413
616,15.460602521896362,0.5968,-0.3846,0.0629,-10.19,1.415,1.868,1.154579,-0.104154,2.395622,0.8044656321782423,-0.5424831592283637,-0.22079477389711244,-0.09897846441220438
617,15.486958980560303,0.5727,-0.4089,0.0639,-10.33,2.056,1.671,0.873622,-0.269725,2.300752,-0.5014721297979093,0.5223533069768913,0.3140882198872409,-0.6140206151704668
618,15.517422437667847,0.5539,-0.424,0.0684,-9.804,1.829,0.761,0.602565,-0.336488,2.094213,-0.07042400170632758,-0.38467653943498015,0.8873931940222396,-0.24412648196171421
619,15.53564977645874,0.5362,-0.4404,0.061,-8.479,2.075,0.844,0.368973,-0.466917,1.88155,0.8160536657906743,0.4102188633542872,0.39860319211383116,0.08302044287152155
620,15.561486721038818,0.5241,-0.4577,0.0696,-7.912,2.726,0.741,0.565643,-0.545701,1.706776,0.06574577433518342,0.6172517614493247,-0.37725646506012167,0.6872811038542486
621,15.58736777305603,0.5077,-0.4744,0.0624,-7.078,4.012,0.047,0.119292,-0.456554,1.583187,-0.6888262041899103,0.01962901769909886,-0.7043989064427567,0.17016269475927115
622,15.614441156387329,0.4927,-0.4841,0.062,-7.186,3.908,0.572,0.348159,-0.41983,1.485634,-0.3314617150940472,-0.5946458474497989,-0.4315222501702593,-0.5918766722431449
623,15.635916948318481,0.4774,-0.4911,0.0541,-7.155,3.403,0.619,0.658248,-0.345581,1.388153,0.6244129949282602,-0.4647164142790965,0.014637978565337606,-0.6276406580582716
624,15.662175416946411,0.4676,-0.5041,0.0707,-6.588,3.313,1.229,0.582461,-0.346318,1.297525,0.6628181641019856,0.3242227423429698,0.5381515779331393,-0.40736295100579484
625,15.685612916946411,0.4536,-0.5129,0.0671,-6.01,3.628,1.21,0.26514,-0.414783,1.228398,-0.09941787224146986,0.3883214739292459,0.9083149929123011,-0.11952570106518046
626,15.711519002914429,0.4408,-0.5189,0.0682,-5.696,2.931,0.92,0.190905,-0.46339,1.054447,-0.7814538173118714,0.004416182666982835,0.6219510708491892,0.0498727802403556
627,15.749651193618774,0.4321,-0.5248,0.0631,-5.565,2.876,1.393,0.048769,-0.438256,0.785211,-0.9918178688985375,-0.0004858408994737381,-0.023896207129861777,-0.1254035492998123
628,15.761098146438599,0.4286,-0.5313,0.071,-5.399,3.712,0.667,0.008972,-0.279821,0.49939,-0.7826350070521524,0.30180804519740473,-0.38970304096264075,-0.38016560793300197
629,15.788063526153564,0.4243,-0.535,0.064,-5.125,5.657,1.311,-0.207641,-0.187464,0.333086,-0.4930674514188222,0.49937214103530986,-0.5108703640470281,-0.4965112528912259
630,15.811309814453125,0.4201,-0.5369,0.0605,-4.88,5.585,2.694,-0.236244,-0.246947,0.124402,-0.05693845309242501,0.6706976969522154,-0.3379509352635392,-0.6578083134294785
631,15.835826635360718,0.4202,-0.5345,0.0499,-4.707,5.599,1.233,-0.146523,-0.09837,-0.130738,0.1874121453336252,0.6878661795556936,-0.09102430490547414,-0.6952923002028557
632,15.860822677612305,0.4264,-0.5358,0.0587,-4.801,6.039,2.628,-0.268541,-0.242887,-0.288031,0.44051255480982643,0.5805663193793535,0.3427154373651031,-0.5928216990367983
633,15.887656688690186,0.4329,-0.5334,0.0474,-5.183,7.194,1.739,-0.139181,-0.286442,-0.52562,0.5518845703363143,0.16876316872083036,0.8060983944729724,-0.1309495793658847
634,15.915061235427856,0.4385,-0.5272,0.0472,-6.214,10.793,1.342,-0.422357,-0.188444,-0.551121,0.14694356617283205,-0.2449057925625821,0.8703656170697955,0.40111399097066935
635,15.938906908035278,0.4432,-0.5239,0.0343,-9.195,13.165,1.58,-0.025147,-0.503806,-0.118622,-0.3872870114381879,-0.429006693948777,0.44090297794831845,0.6867070637140135
636,15.96314287185669,0.452,-0.5269,0.0521,-10.608,6.58,0.26,1.112961,-0.241513,-0.310042,-0.35443405486507357,-0.7560391999026957,0.48096381807823274,0.267310745504184
637,15.986371994018555,0.4602,-0.5202,0.0522,-8.77,4.606,1.384,0.304122,-0.034192,-0.830751,-0.46905246026745123,-0.7434943748503366,0.4330811731144854,-0.1991145438604101
638,16.01473355293274,0.4701,-0.5081,0.055,-8.889,4.67,1.44,-0.418522,0.025032,-1.109438,-0.3203442623482976,-0.3027058799865377,0.5849316348696327,-0.6808844882436665
639,16.041216373443604,0.4809,-0.4983,0.0448,-10.535,5.557,2.393,-0.354354,0.120455,-1.131945,0.33829198865393256,0.10572845148332802,0.7927855588380881,-0.49585389244946493
640,16.062318325042725,0.4966,-0.4927,0.0546,-10.482,5.771,2.114,-0.240467,0.098067,-1.22052,0.8678629457678045,0.027951585884269048,0.4211203798266171,0.262088233052285
641,16.085762977600098,0.5129,-0.483,0.0463,-9.971,4.479,2.541,-0.398308,0.107671,-1.400457,0.7178951693724394,0.1463858344479792,-0.5176580226988117,0.4418459967004815
642,16.11563539505005,0.5257,-0.4695,0.0438,-9.869,4.037,2.434,-0.583504,-0.038351,-1.584616,0.8228101567235772,0.4587844845639782,-0.16522893937310476,-0.29188977424624896
643,16.138877868652344,0.5431,-0.4549,0.0278,-8.956,4.605,2.248,-0.521841,-0.201781,-1.63676,0.10933554670661455,-0.5967535798789403,0.48885224493160606,0.6268607387238125
644,16.162548780441284,0.5633,-0.4463,0.0315,-8.626,5.225,1.916,-0.281437,-0.198545,-1.520183,-0.8752588603032576,0.1668159790328057,0.4448211900011999,0.09071088978664855
645,16.19545817375183,0.5784,-0.429,0.0237,-8.681,4.11,1.549,-0.064233,-0.125537,-1.4206,-0.7908081777375168,-0.2503335616695083,0.3741426473207511,0.41469604939177634
646,16.21755599975586,0.591,-0.4137,0.0207,-9.066,3.029,1.731,-0.110474,-0.069282,-1.403816,-0.48045262349246776,0.5823323690573832,-0.3227689808057069,-0.5708541613729955
647,16.24448585510254,0.6027,-0.3975,0.0132,-9.663,2.369,1.771,-0.236996,-0.000848,-1.403524,0.996978945208793,0.006096840870147028,0.01751575419016115,-0.07542552417395924
648,16.262352228164673,0.6193,-0.3864,0.0195,-9.352,2.304,2.377,-0.457698,0.064041,-1.306532,0.7082147686682448,-0.12296200158495355,-0.6727601235730897,-0.175231286408356
649,16.287403345108032,0.6314,-0.3702,0.0136,-8.904,2.589,2.299,-0.560816,0.107151,-1.265483,0.4879160194883979,-0.750041151072808,-0.33075427285836106,0.2999630654095791
650,16.315882921218872,0.6389,-0.3568,0.0153,-8.844,3.229,2.502,-0.466,0.145099,-1.216434,-0.547864621612874,0.5026027933986784,-0.4939517410920121,-0.45082864363857544
651,16.33950924873352,0.6478,-0.3414,0.0048,-8.751,2.78,2.71,-0.478181,0.119531,-1.193355,0.18717625121610754,0.21403941775972063,0.7194189484485275,0.6337101508094843
652,16.365798473358154,0.66,-0.3287,0.0132,-8.323,2.272,2.635,-0.419861,-0.004808,-1.208115,-0.2955469007951204,0.7083268964834645,0.16603132425327927,0.6191596211924719
653,16.390674829483032,0.6686,-0.3139,0.0083,-8.281,2.059,1.936,-0.347168,0.078765,-1.137565,-0.1747421710744408,0.9379025519360822,0.012427016119141661,0.2994153402722547
654,16.421061754226685,0.6732,-0.2961,0.0055,-8.315,1.782,2.403,-0.358436,0.041669,-1.095771,-0.3096050593347861,-0.15446578279636203,-0.3276308687751915,0.879171793795174
655,16.445201635360718,0.6792,-0.2813,-0.0026,-8.646,1.945,2.313,-0.528032,0.07358,-0.995939,0.7145716486870355,-0.02469936725651045,0.6899690350202903,0.11278311426357052
656,16.462648630142212,0.6893,-0.2713,0.0039,-8.65,1.456,2.613,-0.576509,0.09574,-0.93789,-0.3617039793868594,0.41884737068466726,-0.10119678263242975,-0.8267383640252194
657,16.488426446914673,0.6952,-0.2581,-0.0026,-8.639,2.385,2.324,-0.546646,0.123225,-0.824863,-0.7759965390136867,-0.6241765064612831,-0.04185574394815594,0.08050563284090279
658,16.519160747528076,0.696,-0.2473,-0.0029,-8.335,2.469,1.889,-0.305463,0.130794,-0.714817,-0.16046315091822694,-0.28901591036425633,0.9326772427779012,-0.14434175264948937
659,16.546481370925903,0.6978,-0.236,-0.0092,-8.755,1.749,2.143,-0.19183,0.125478,-0.686055,-0.8000025096054694,0.004206580114612418,0.4826973206880321,-0.3563447570952677
660,16.56308674812317,0.7052,-0.2287,0.0021,-8.967,1.611,2.435,-0.149737,0.112669,-0.707099,-0.7003825655322776,-0.24103690744330966,0.6702613484420583,-0.04599125931330561
661,16.593324422836304,0.7097,-0.2155,-0.0015,-8.828,1.938,2.82,-0.049132,0.138091,-0.688154,-0.7179022671473497,-0.1493849540906967,0.6668599261227754,-0.13265861919808497
662,16.615917682647705,0.7109,-0.2066,0.0006,-8.785,2.56,1.502,0.07378,0.13879,-0.557924,-0.5506623304520384,-0.22229097923100022,0.793512149138199,-0.13302701809681183
663,16.639307260513306,0.7116,-0.1972,-0.0039,-8.936,1.919,2.254,0.299452,0.076943,-0.428913,-0.8046682957222694,-0.2810824252693124,0.4210762306977064,-0.31015546425228724
664,16.663896083831787,0.7176,-0.1953,0.0092,-8.865,0.856,3.467,0.114264,0.043248,-0.433976,-0.03978373521710603,0.4571496782691803,-0.0561118191329328,0.8867259383959362
665,16.687196016311646,0.7183,-0.1875,0.0074,-9.111,0.373,2.55,-0.160978,0.031707,-0.461998,0.0327966749752028,0.8937877359859512,0.0118103506637781,0.44713351107792987
666,16.714393138885498,0.7198,-0.1791,0.008,-10.045,0.183,2.342,-0.078001,0.066665,-0.517669,-0.024238731571511796,0.4581347687449674,-0.11630783584088444,0.8809072056015943
667,16.749571084976196,0.7226,-0.1697,0.0035,-9.949,-0.479,2.432,-0.205925,0.114261,-0.553991,0.2628473838794998,0.8042731476436668,0.09570294955933567,0.5243061149869366
668,16.763174295425415,0.7281,-0.1659,0.0145,-10.924,-0.706,2.421,-0.45153,0.134845,-0.603218,0.02483663845905759,0.718616367839642,-0.42484152294087596,0.5499848521989414
669,16.79183268547058,0.7278,-0.1535,0.0108,-10.744,-0.078,2.394,-0.530518,0.158525,-0.559659,0.4158983457759533,0.34140097416652726,-0.408004042190645,0.7375680594867611
670,16.814390659332275,0.7303,-0.1484,0.0108,-12.168,1.335,2.274,-0.638469,0.229242,-0.466164,0.7323236903186269,0.4727775684110626,-0.4353694220436085,0.2250263312478016
671,16.837602615356445,0.7356,-0.1441,0.0085,-13.275,1.549,2.762,-0.783615,0.234673,-0.298022,0.479357364687022,-0.08032082144700008,-0.8658151392001445,0.11886642627010813
672,16.862767457962036,0.7426,-0.1455,0.02,-13.877,1.68,2.321,-0.535278,0.261683,-0.223859,0.7573348051267731,-0.060719484528630074,-0.45136421306748775,-0.4680037225323508
673,16.890421628952026,0.7411,-0.1409,0.0184,-12.905,1.97,1.492,-0.280969,0.267709,-0.022886,0.6723286156648624,-0.6605708312530878,-0.3174347528411592,-0.1041901489798638
674,16.91343879699707,0.7382,-0.1422,0.0192,-11.915,1.862,1.474,-0.3135,0.228148,0.335547,0.5296063810572528,-0.8363635115548016,-0.13954244336871346,-0.02326078635494977
675,16.942896127700806,0.7378,-0.1495,0.0141,-10.186,1.818,3.124,-0.469864,0.224718,0.75633,0.3401556177984961,0.2830306504638589,0.0770647378936097,-0.8934477224502381
676,16.963709354400635,0.7403,-0.1681,0.0244,-9.066,1.804,2.86,-1.126085,0.284,1.202987,0.6544339000819237,0.2935715689430846,0.6456838868138545,-0.26196244509626243
677,16.98929738998413,0.7363,-0.1945,0.0211,-9.99,1.765,1.16,-1.16514,0.458664,1.522538,-0.11817595533544475,0.052675416602493697,-0.9648821581722857,0.22860919689964582
678,17.015583992004395,0.7262,-0.2183,0.026,-11.048,3.373,0.893,-0.085983,0.432807,1.749537,0.8760608056482003,-0.11480702247646918,-0.46324919659759556,-0.06882582544943337
679,17.039328575134277,0.7202,-0.2444,0.0248,-10.256,4.727,2.746,0.391101,0.126312,1.940685,-0.4162877542353624,0.36404328792175783,0.3807409863604308,0.7410892601421782
680,17.06502103805542,0.7105,-0.2741,0.0381,-9.881,2.376,1.726,0.773973,0.058629,2.182158,0.1857910377598737,0.08101419361785273,0.8935613214119724,0.40058276997026215
681,17.091835737228394,0.6969,-0.3059,0.0368,-10.461,0.957,0.392,0.821139,0.029454,2.214056,0.536327434375965,0.5574251282248694,-0.09895790057640755,-0.6259692032941341
682,17.11586332321167,0.6813,-0.332,0.0413,-10.741,0.343,1.168,1.028423,0.085419,2.041345,0.7209518303154221,0.36318420530383655,-0.533004157985446,0.2534408391575621
683,17.142853498458862,0.6684,-0.3528,0.044,-10.017,0.158,2.064,1.477995,-0.003631,1.89519,0.7149577741019667,-0.02328836764449077,0.6630394258750868,0.22061675575271103
684,17.166459798812866,0.6547,-0.3749,0.0614,-9.405,0.111,1.653,1.210274,-0.228325,1.754459,0.10360422962220533,-0.4658337756972203,-0.7174310114274173,-0.5075015279447879
685,17.19101619720459,0.641,-0.3965,0.0601,-8.917,0.511,0.332,0.314214,-0.314346,1.625557,0.573842403646914,0.27322449952351385,-0.3627772460750579,-0.6815027060599645
686,17.215444087982178,0.6274,-0.4129,0.0548,-8.611,1.941,0.612,0.181263,-0.359566,1.496479,-0.32481075225617684,0.7362957051298804,0.10082533386418208,-0.5849793687620487
687,17.24563717842102,0.6161,-0.4272,0.0456,-7.887,2.751,1.854,0.818789,-0.511682,1.407064,-0.7435214262803094,0.046465471757192844,0.6477944277169256,-0.1593085936645495
688,17.266945838928223,0.6065,-0.4412,0.0567,-6.995,1.193,0.88,0.681115,-0.596909,1.177216,-0.243638952966012,-0.8097139429234188,0.49294336425130914,0.2049639745751365
689,17.29312229156494,0.5972,-0.4536,0.0493,-6.543,0.497,-0.16,0.43449,-0.517305,0.905575,-0.14960579809022817,-0.6467878136690274,-0.1887740399009828,0.7236352611132819
690,17.316082239151,0.5895,-0.4574,0.0482,-6.695,1.309,0.131,0.470742,-0.424098,0.70515,-0.2615640448576467,-0.010751209659974725,-0.3536069078976509,0.898014931176323
691,17.344417333602905,0.5856,-0.462,0.0447,-7.282,1.838,0.821,0.309799,-0.389792,0.533109,-0.37076379191303666,0.47144333760621704,-0.0688540936443375,0.7972041795057235
692,17.36552143096924,0.5833,-0.4698,0.0521,-7.308,1.494,1.059,-0.160992,-0.364093,0.296165,-0.26013765621792995,0.6693896442189724,0.18766900225028882,0.6700942095140211
693,17.38997483253479,0.583,-0.4722,0.0404,-7.085,1.374,0.396,-0.577271,-0.277125,-0.003133,-0.019974269923450527,0.6519004977508684,0.08649092392624202,0.7530910234836027
694,17.414467811584473,0.5833,-0.47,0.0337,-7.46,2.171,0.09,-0.793814,-0.159339,-0.215156,0.2588048235205487,0.6286240862297324,-0.28613062562935987,0.6752637163444238
695,17.44661855697632,0.589,-0.4697,0.0216,-7.917,3.154,-0.453,-0.668432,0.070798,-0.380109,0.669295773860775,0.44742425879061565,-0.4325867206145079,0.4058613419454485
696,17.46555256843567,0.594,-0.4673,0.0275,-7.966,3.104,0.788,-0.407983,0.216318,-0.549533,0.9354076586208535,0.11715007558784754,-0.22614137141522586,0.2452518136888195
697,17.49305510520935,0.6014,-0.4614,0.0249,-7.715,2.745,1.481,-0.333947,0.250389,-0.770768,0.9010086129940041,-0.2518807919499384,0.19939765999207998,0.29151349736671794
698,17.517029762268066,0.6094,-0.4511,0.0243,-7.209,3.086,1.991,-0.597248,0.19746,-0.973724,0.24024233773501388,-0.5892473438871317,0.4318401465772358,0.6392067542554032
699,17.540756464004517,0.621,-0.4406,0.0164,-7.144,5.406,1.542,-0.891866,0.050541,-1.09845,-0.7615109139743148,0.12749476384748565,0.003489848218641192,0.6354793734252027
700,17.56476330757141,0.6324,-0.4323,0.0195,-7.483,8.469,1.876,-0.791206,-0.133836,-1.096037,-0.18751485010438984,0.6714303562084625,0.18996842854330784,0.6913258666568837
701,17.593125581741333,0.6443,-0.4223,0.0085,-9.956,9.626,4.711,-0.706309,-0.235476,-0.855093,0.0021718027318577138,0.9080194025422319,-0.3160478409838507,0.27497238059337675
