,time,magX,magY,magZ,linear_accX,linear_accY,linear_accZ,angular_velX,angular_velY,angular_velZ,orientationX,orientationY,orientationZ,orientationW
0,0.0,0.6632,-0.0812,0.1073,-9.646,-0.331,1.686,0.034525,-0.025412,0.021172,-0.12550417457555962,0.6201343948836209,-0.1323770610905054,-0.7629930197213295
1,0.013586997985839844,0.6635,-0.0802,0.1063,-9.595,-0.294,1.657,-0.003533,-0.036057,0.020042,-0.24743369025726403,0.5704292372994231,-0.2567763749100877,-0.7399006334959478
2,0.052776336669921875,0.6645,-0.0831,0.1076,-9.624,-0.129,1.625,-0.031444,-0.039381,0.018919,-0.3550281850361569,0.49781680330983047,-0.36295179616285556,-0.7031354150051546
3,0.06303524971008301,0.6637,-0.0815,0.106,-9.576,-0.017,1.541,-0.035216,-0.0357,0.023576,-0.45759088868638065,0.40625157317830213,-0.4593901008973319,-0.6438407979298162
4,0.09070420265197754,0.6637,-0.0837,0.1057,-9.612,0.071,1.53,0.028749,-0.019459,0.018736,-0.5516492238501944,0.2917985432261361,-0.5533572467318224,-0.5516633950933846
5,0.12236714363098145,0.6635,-0.0807,0.1036,-9.684,-0.07,1.583,0.106465,-0.004203,0.012043,-0.6109074711701807,0.18221030277590927,-0.6263935804585143,-0.4485783650502206
6,0.14980006217956543,0.6656,-0.0818,0.1039,-9.635,-0.13,1.733,0.144752,-0.002933,0.00772,-0.6436861482029541,0.0720427729145452,-0.6842634638809204,-0.33505446345349943
7,0.1631016731262207,0.6637,-0.0818,0.1036,-9.606,-0.309,1.738,0.120808,-0.007986,0.004712,-0.6508086523732016,-0.014240882428321389,-0.7175673076264316,-0.24767408885386882
8,0.2009730339050293,0.6643,-0.0815,0.1033,-9.632,-0.323,1.68,0.101725,-0.006614,0.004248,-0.6470573600659391,-0.08410815949098521,-0.7365161880675987,-0.17828767485698557
9,0.21381855010986328,0.6638,-0.081,0.1025,-9.612,-0.312,1.74,0.074339,-0.011016,0.002524,-0.6379016920864837,-0.1374746854309707,-0.747140517724822,-0.1263455138607678
10,0.23716330528259277,0.6653,-0.081,0.1028,-9.631,-0.28,1.665,0.038105,-0.011131,-0.001479,-0.6295402999734138,-0.15879954987818085,-0.7525174794845209,-0.11035921682458028
11,0.2626655101776123,0.6648,-0.0796,0.1042,-9.638,-0.228,1.652,0.041987,-0.001267,-0.005423,-0.6246737427850743,-0.14744049185149294,-0.757101303381218,-0.1218262404243759
12,0.31232190132141113,0.6638,-0.0794,0.1044,-9.588,-0.241,1.701,0.052958,0.008947,-0.006466,-0.6220924296324291,-0.12218431246964909,-0.7611805716463464,-0.13666067513546737
13,0.3141646385192871,0.663,-0.0785,0.1047,-9.671,-0.344,1.671,0.052515,0.019042,-0.008273,-0.6216732332335435,-0.08193628117684115,-0.7629070427905581,-0.15742198375203983
14,0.35242414474487305,0.6653,-0.0791,0.1052,-9.659,-0.376,1.762,0.035577,0.011621,-0.01276,-0.6176331925280404,-0.013944315375680638,-0.7583872743851147,-0.2078064907721625
15,0.36375856399536133,0.6636,-0.078,0.1036,-9.675,-0.257,1.687,0.000704,0.010896,-0.012852,-0.6048136081716846,0.07060218665673537,-0.7415114595580491,-0.28173850633828373
16,0.3880908489227295,0.6651,-0.0775,0.105,-9.641,-0.266,1.771,0.005095,0.008568,-0.009097,-0.5856933949893055,0.14484395154106844,-0.7179043407080279,-0.34727054922702827
17,0.4142179489135742,0.6635,-0.0788,0.1063,-9.631,-0.204,1.713,-0.010235,0.007923,-0.004851,-0.5718600813552253,0.19169465604677197,-0.6976638751743321,-0.3866449579035511
18,0.4608938694000244,0.6653,-0.0794,0.1044,-9.651,-0.227,1.648,-0.00388,0.010191,-0.002335,-0.5619329467521061,0.22732489032282654,-0.6801854395529594,-0.41219234031500035
19,0.46381545066833496,0.6643,-0.0791,0.1052,-9.643,-0.202,1.672,0.001168,0.004605,-0.003552,-0.5484746436975051,0.26094234595506716,-0.6622970047965113,-0.43868819763692163
20,0.4935321807861328,0.6643,-0.0788,0.1052,-9.64,-0.174,1.729,0.003769,0.000311,-0.001305,-0.5432479607230738,0.272365900997014,-0.6561750630819426,-0.44736199630021656
21,0.5174925327301025,0.6638,-0.0777,0.1057,-9.643,-0.212,1.66,-0.018584,0.002702,0.005784,-0.5491526122836814,0.2659805537521779,-0.6591778809359844,-0.4395114045533276
22,0.5430202484130859,0.6654,-0.0775,0.1034,-9.67,-0.155,1.605,-0.012187,0.004966,0.006797,-0.565219880608428,0.2480982287118474,-0.6682079506179427,-0.41529735155188185
23,0.5647525787353516,0.6638,-0.0788,0.1057,-9.622,-0.195,1.618,-0.003526,0.009669,0.003684,-0.5749029651229353,0.2421598706408331,-0.6713013484836547,-0.4002495187606083
24,0.6007065773010254,0.6632,-0.0807,0.1023,-9.657,-0.178,1.704,-0.002652,0.006515,0.002063,-0.5772021373849621,0.24841891508420935,-0.6681891326139499,-0.3983076929752088
25,0.6163229942321777,0.663,-0.0791,0.1068,-9.613,-0.21,1.652,-0.004122,0.011228,0.006791,-0.5857923594525044,0.2444231034467814,-0.6704468500909941,-0.3841948455036533
26,0.6383740901947021,0.6651,-0.0794,0.1044,-9.636,-0.204,1.63,-0.027051,0.010578,0.004175,-0.5925417199241252,0.24557254678991433,-0.6690253388390557,-0.37549105236178637
27,0.6635138988494873,0.6638,-0.0794,0.1039,-9.655,-0.205,1.694,-0.01928,0.005288,0.002571,-0.5929797579982721,0.2579691794230986,-0.6617608409474766,-0.37934087370144076
28,0.7074170112609863,0.6641,-0.078,0.1063,-9.67,-0.183,1.63,-0.019018,0.004586,0.001702,-0.5901863247870975,0.2723033159372582,-0.6535389779228935,-0.3878373505728558
29,0.7137441635131836,0.6638,-0.0791,0.1055,-9.631,-0.238,1.657,-0.007464,-0.000434,-0.001461,-0.5821891921673227,0.2915796017511506,-0.6425577976685535,-0.40392642525779227
30,0.739438533782959,0.6648,-0.0804,0.1052,-9.646,-0.164,1.622,-0.020563,-0.003299,-0.000763,-0.5731410389435747,0.3076858996730931,-0.6323831765289942,-0.42063078187899894
31,0.7653493881225586,0.6648,-0.0799,0.1042,-9.647,-0.177,1.646,-0.014223,-0.001342,-0.001939,-0.5598504520109908,0.33024486148431176,-0.6171872484249203,-0.4433798633541815
32,0.7894287109375,0.664,-0.0802,0.1041,-9.659,-0.187,1.656,0.000367,0.003395,-0.006325,-0.5415231485947569,0.36049116396186176,-0.5965115900397532,-0.4700773587290592
33,0.8144960403442383,0.6638,-0.0799,0.1044,-9.635,-0.246,1.639,-0.002126,0.003249,-0.006608,-0.5112601314230567,0.4023549698250375,-0.5643527204979844,-0.5081629297192939
34,0.8397393226623535,0.6658,-0.0807,0.1071,-9.643,-0.238,1.632,-0.019151,0.00607,-0.005463,-0.4736471746666714,0.44723381827218633,-0.523561763015287,-0.5491114149535457
35,0.8643507957458496,0.6638,-0.0788,0.1047,-9.636,-0.205,1.612,-0.024037,0.004209,-0.002303,-0.443313014259929,0.48108343192975933,-0.4884949297234102,-0.5774123366754309
36,0.8890259265899658,0.6643,-0.0796,0.1042,-9.65,-0.24,1.667,-0.033042,-0.002931,0.003147,-0.4271577421569356,0.49711584913732987,-0.46935232620931244,-0.5917098019585003
37,0.9132180213928223,0.6632,-0.081,0.1057,-9.623,-0.17,1.6,-0.04857,-0.004435,0.014594,-0.44787589708431375,0.47908270219462457,-0.4877011825185402,-0.5762243502654459
38,0.9388909339904785,0.6653,-0.0815,0.105,-9.658,-0.213,1.634,-0.053102,0.003589,0.024034,-0.508102484709628,0.4242382202671723,-0.5422215407955355,-0.5175418806181388
39,0.9648451805114746,0.6638,-0.0796,0.106,-9.605,-0.229,1.688,-0.037265,0.001388,0.026207,-0.5748211863772307,0.3443079581486605,-0.6036840930244565,-0.4319700793765847
40,0.999779462814331,0.664,-0.0815,0.106,-9.633,-0.238,1.707,-0.038397,-0.000967,0.03097,-0.6392235661292153,0.22570519734796665,-0.6653043642719834,-0.3127626884329656
41,1.016650915145874,0.6624,-0.0818,0.1047,-9.641,-0.187,1.707,-0.042329,0.004637,0.036719,-0.685383157028979,0.07469709132373953,-0.707095245313077,-0.15711965715467396
42,1.039323329925537,0.6642,-0.0834,0.1041,-9.68,-0.204,1.73,-0.042553,0.010993,0.040271,-0.6946224451636408,-0.1048109970749816,-0.7108793448894047,0.03413020036043596
43,1.0653488636016846,0.6627,-0.0829,0.1047,-9.637,-0.149,1.609,-0.042011,0.013179,0.048954,-0.6411814739799544,-0.31215323991257793,-0.6517090351078263,0.2583060312803395
44,1.0948541164398193,0.6634,-0.0853,0.1052,-9.678,-0.083,1.453,-0.040515,0.01317,0.062894,-0.4684903126866207,-0.5441843975845875,-0.474064053772703,0.5095521968011556
45,1.1160674095153809,0.6624,-0.0853,0.1052,-9.692,-0.122,1.573,-0.004628,0.011532,0.078935,-0.1017277138784246,-0.7064403337162226,-0.10367076497266962,0.6927091017288303
46,1.1450886726379395,0.6628,-0.088,0.1041,-9.668,-0.305,1.384,-0.032304,0.00411,0.084404,0.3204602140605016,-0.6364858686431935,0.3190356405224362,0.6248257759553905
47,1.1627092361450195,0.6626,-0.0872,0.1052,-9.695,-0.358,1.571,-0.05827,-2.6e-05,0.089628,0.6459989224438792,-0.2886418571500502,0.6458456277060487,0.2868007944118997
48,1.2005867958068848,0.6623,-0.0899,0.1049,-9.673,-0.478,1.45,-0.115993,0.001408,0.090152,0.6885355147917327,0.16378429843243997,0.688604147385566,-0.15785397258502876
49,1.2127304077148438,0.6612,-0.0904,0.1049,-9.665,-0.334,1.522,-0.175367,-0.009679,0.100458,0.44091539637624444,0.5552334594938175,0.4404468509857299,-0.5507413096487869
50,1.2461652755737305,0.6632,-0.0936,0.1049,-9.598,-0.259,1.669,-0.237681,0.0053,0.114606,-0.03989673219055853,0.7077906689519236,-0.040875791387519594,-0.7041092169426184
51,1.2762367725372314,0.6619,-0.0958,0.1046,-9.654,-0.249,1.457,-0.307746,0.031436,0.140491,-0.5546901989110573,0.4425799225768328,-0.5673629753640796,-0.4177811024327395
52,1.2922546863555908,0.6605,-0.0985,0.1043,-9.574,-0.075,1.676,-0.298819,0.016488,0.145779,0.5551129832140854,-0.39840309809760843,0.6097208431056492,0.40170267708334007
53,1.3148586750030518,0.6599,-0.1036,0.1038,-9.543,0.117,1.654,-0.309726,0.007072,0.121465,0.6490362385853913,0.19907941731969508,0.7116816028378952,-0.1806340022937599
54,1.3525407314300537,0.6614,-0.1066,0.1056,-9.705,0.297,1.796,-0.2695,0.002115,0.094009,0.3906105752332778,0.5838938028762743,0.45032314543940943,-0.5510902559111046
55,1.3627912998199463,0.6593,-0.106,0.1051,-9.651,0.442,1.772,-0.189602,-0.005918,0.077063,0.05207446117153694,0.7215840553930437,0.10114946105367953,-0.6829154325571893
56,1.3876667022705078,0.6608,-0.1106,0.1053,-9.663,0.461,1.892,-0.086106,-0.007208,0.070955,-0.2980529674961928,0.6670089806906089,-0.2605318130177041,-0.6311787564949382
57,1.4235830307006836,0.6566,-0.113,0.1032,-9.627,0.294,2.084,-0.02522,-0.008053,0.061077,-0.5699783201844876,0.45172140392876,-0.5411397383873008,-0.42218511495601496
58,1.4373412132263184,0.6602,-0.1133,0.1021,-9.532,0.137,2.129,-0.015836,0.002753,0.05225,-0.7036969488712115,0.16380799336670512,-0.6777765395825808,-0.13636901352573902
59,1.4650700092315674,0.6581,-0.1133,0.1061,-9.513,0.12,1.953,-0.016081,0.00242,0.037511,-0.7144945927219637,-0.07554637173257422,-0.6875851826095312,0.10496113254408437
60,1.4882237911224365,0.6586,-0.1139,0.1029,-9.493,0.091,1.766,0.000288,-0.012029,0.027675,-0.668617598727369,-0.24708496332169275,-0.6466859751714835,0.27147150327220765
61,1.514223337173462,0.6584,-0.1144,0.1034,-9.657,0.063,1.71,0.01864,-0.011749,0.017757,-0.6080272312068438,-0.3645711593854155,-0.5945084105150912,0.37940809912564244
62,1.5504372119903564,0.6583,-0.1157,0.1034,-9.764,-0.028,1.703,0.010146,0.004813,0.006432,-0.5691141184349798,-0.42100804948900855,-0.5583244609263641,0.43259119130504875
63,1.5642712116241455,0.6579,-0.1139,0.1032,-9.655,0.052,1.648,-0.045663,0.025159,-0.003721,-0.5824635145563414,-0.40410168110151384,-0.5586146247273327,0.43056682011314645
64,1.589097499847412,0.6573,-0.1152,0.105,-9.704,0.202,1.603,-0.042195,0.018329,-0.00983,-0.6248689314098691,-0.3406560377379207,-0.5870322872395993,0.38585667837894555
65,1.6133484840393066,0.6571,-0.1147,0.1053,-9.682,0.194,1.611,-0.014411,0.012298,-0.009431,-0.660900524763572,-0.27554271534306124,-0.611787204923948,0.3361593733334698
66,1.647512435913086,0.6586,-0.1157,0.1042,-9.608,0.145,1.477,-0.023854,0.012903,-0.0076,-0.6882898739527175,-0.21449427925254339,-0.6303512723078062,0.2879349355010855
67,1.6639363765716553,0.6571,-0.1133,0.1056,-9.618,0.025,1.411,-0.050205,0.01853,-0.004635,-0.7110348622330942,-0.15008798130858111,-0.6435791193576457,0.2402268504616363
68,1.688875675201416,0.6573,-0.1157,0.1045,-9.63,-0.104,1.357,-0.121619,0.006868,0.000173,-0.7261983930252001,-0.07922824138904627,-0.6574321642160794,0.18477480669230265
69,1.7157883644104004,0.6565,-0.1155,0.1029,-9.636,-0.138,1.404,-0.196372,0.004081,-0.00281,-0.7312821003708586,0.021276498635655006,-0.6754482349599462,0.09243095895037423
70,1.7594449520111084,0.6576,-0.1157,0.1042,-9.727,0.045,1.553,-0.174577,0.022418,-0.022956,-0.7102594137500507,0.21582260433233005,-0.6653092270863218,-0.07947201389448966
71,1.7630510330200195,0.6576,-0.116,0.105,-9.702,0.368,1.746,-0.062561,0.014509,-0.039536,-0.6104470426610715,0.4588625285874619,-0.5714918209783664,-0.3003276319613356
72,1.7884807586669922,0.6573,-0.1152,0.1042,-9.571,0.381,1.945,0.009267,0.000824,-0.042869,-0.43428280500303523,0.6490934322187902,-0.3943961528384816,-0.4842807410535047
73,1.8163721561431885,0.6568,-0.1152,0.1037,-9.591,0.326,1.806,-0.011234,0.0074,-0.029305,-0.254852733401708,0.745909494326547,-0.21363777177210597,-0.5770857934687377
74,1.8386471271514893,0.6578,-0.1165,0.1018,-9.662,0.28,1.669,-0.031282,0.007284,-0.018955,-0.11243030927862067,0.7833864132320356,-0.07333742342232066,-0.6068663571534804
75,1.876145601272583,0.6565,-0.1152,0.1026,-9.675,0.145,1.536,0.001019,0.006169,-0.016564,-0.016974041633704376,0.7923754542582532,0.02211197126091677,-0.6093964900839195
76,1.8884179592132568,0.6568,-0.1155,0.1055,-9.652,0.002,1.454,0.010909,0.006351,-0.014614,0.06588965775691716,0.7889953763619144,0.10693869883866355,-0.6014224503382717
77,1.9135315418243408,0.656,-0.1157,0.1042,-9.649,-0.076,1.486,0.014931,0.012609,-0.01792,0.14571639409294265,0.7778920456147054,0.1912829471097099,-0.58057000612066
78,1.9402415752410889,0.6573,-0.1149,0.1056,-9.72,-0.175,1.511,0.03268,0.009553,-0.027128,0.2513237851834295,0.7454925062461072,0.3035257890000014,-0.5375401134277311
79,1.9806740283966064,0.6552,-0.1147,0.1045,-9.681,-0.188,1.488,0.009751,0.002506,-0.036603,0.40417020974338597,0.654221454776971,0.4618835160827672,-0.44193251434637765
80,1.995701551437378,0.6576,-0.1133,0.104,-9.635,-0.087,1.499,-0.025168,0.006269,-0.04035,0.5632788031090207,0.47907607913025274,0.6203190478744399,-0.2615480438034303
81,2.01354718208313,0.6555,-0.1133,0.1039,-9.657,0.017,1.551,-0.017166,0.014035,-0.029628,-0.15432828681496447,-0.691459797423353,-0.373058157744267,0.5990774068319279
82,2.047441244125366,0.6574,-0.1125,0.1053,-9.624,0.046,1.608,0.003497,0.010758,-0.017797,-0.2615695034221138,-0.6346370584393097,-0.4902266437296046,0.5371173397988713
83,2.063926935195923,0.6563,-0.1122,0.1048,-9.623,-0.04,1.557,0.000747,0.006088,-0.00519,-0.2962628842757878,-0.6081392856649815,-0.534030239239921,0.5071554162274418
84,2.1057939529418945,0.6576,-0.1125,0.1048,-9.642,-0.018,1.638,-0.003243,0.000442,0.001251,-0.29462121977501454,-0.6089766155170628,-0.5357626226812214,0.5052763904531904
85,2.1133179664611816,0.6563,-0.1144,0.1047,-9.601,-0.043,1.588,-0.021962,-0.001443,0.003181,-0.2814526184981955,-0.6203637046994794,-0.5213855498023053,0.5138972717279147
86,2.139451026916504,0.6571,-0.1133,0.1029,-9.635,-0.034,1.546,-0.012263,2.6e-05,-3.8e-05,-0.2746695453824843,-0.6269963810030288,-0.5143505507462112,0.5166001258183679
87,2.1669490337371826,0.6558,-0.1147,0.1024,-9.653,-0.09,1.579,0.004591,-0.00293,-0.00358,-0.2798964387178091,-0.6235907754207279,-0.5188913570383347,0.5133656474620972
88,2.20139479637146,0.6579,-0.1136,0.1034,-9.668,-0.036,1.591,0.012959,0.001518,-0.003305,-0.2891814549565628,-0.6160672161263905,-0.5293021267179834,0.5066305655754543
89,2.213430881500244,0.6555,-0.113,0.1039,-9.662,-0.044,1.652,0.009897,0.000909,-0.000493,-0.2828671173440184,-0.6187654400771299,-0.5258127167653069,0.5105257201939273
90,2.253218650817871,0.6566,-0.1141,0.1029,-9.677,-0.065,1.681,0.003868,-0.003076,0.002303,-0.2740715028309877,-0.624884057955241,-0.5160166587728888,0.51781418802329
91,2.263763904571533,0.6571,-0.1117,0.1029,-9.66,-0.076,1.633,0.000301,0.003037,0.001271,-0.2619117754173979,-0.632962217489294,-0.5050194610438791,0.5250870376382304
92,2.2876052856445312,0.6574,-0.113,0.104,-9.681,-0.058,1.654,0.012894,0.004685,0.000206,-0.24738604116406213,-0.6410211025448685,-0.4946290073392258,0.53219755526303
93,2.313899278640747,0.6561,-0.113,0.1021,-9.638,-0.018,1.613,0.013948,0.003749,-0.00246,-0.24326162877836388,-0.6412854739236439,-0.4964106361399387,0.5321214158683769
94,2.350452423095703,0.6586,-0.1152,0.1026,-9.634,-0.025,1.6,0.018183,0.005994,-0.001331,-0.23924502281343685,-0.640942568575955,-0.499171944561522,0.5317723315563947
95,2.363293170928955,0.6566,-0.1128,0.1034,-9.655,-0.031,1.617,0.016858,0.011555,0.003165,-0.2173849227242976,-0.6504305361097932,-0.4880056736733124,0.5399392331834525
96,2.388533115386963,0.6563,-0.1144,0.1045,-9.651,-0.068,1.572,0.013949,0.009629,0.004716,-0.1827403360565098,-0.6659126227056926,-0.46590442076998984,0.5532625228642907
97,2.412937879562378,0.6548,-0.1112,0.1034,-9.656,-0.091,1.605,0.012522,0.004473,0.009041,-0.13742023383849428,-0.6852654156047313,-0.4298373030813729,0.5716352704195048
98,2.4533421993255615,0.6566,-0.1136,0.1037,-9.657,-0.074,1.577,-0.003697,0.006697,0.015336,-0.06979003305409748,-0.7109238563641423,-0.36804607114497845,0.5951963636090108
99,2.4633917808532715,0.6563,-0.1141,0.1037,-9.673,-0.08,1.534,-0.021877,0.010181,0.024511,0.5684882528912845,0.47571284143569414,0.6527319493640769,-0.1563950162158798
100,2.4882049560546875,0.656,-0.1141,0.1042,-9.681,-0.046,1.546,-0.0259,0.009812,0.031609,0.4857038915541405,0.6069593853321525,0.5656377695324405,-0.2752198175363557
101,2.5143227577209473,0.6561,-0.113,0.105,-9.637,-0.079,1.501,-0.036475,0.00939,0.034969,0.3572169890908505,0.732270243460485,0.4309630602042131,-0.3878751783584621
102,2.553189992904663,0.6575,-0.1166,0.1045,-9.617,-0.073,1.508,-0.054902,0.012655,0.038402,0.19520821494753976,0.8243096265643078,0.2580535464853922,-0.4645597480590822
103,2.563570499420166,0.656,-0.1144,0.1037,-9.648,-0.069,1.47,-0.061725,0.013425,0.035343,0.025277393800241018,0.8676540761310892,0.07295074855193488,-0.4911370947316906
104,2.587658405303955,0.6568,-0.1152,0.1018,-9.693,-0.1,1.451,-0.052242,0.012484,0.027449,-0.11455717990938301,0.8679719652708049,-0.08218190041723415,-0.47618006602435353
105,2.6140830516815186,0.6552,-0.116,0.1047,-9.693,-0.072,1.507,-0.047267,0.007343,0.019829,-0.21139795359904962,0.8480999382202363,-0.1929051463404185,-0.44589797546114396
106,2.653956174850464,0.6563,-0.1163,0.1039,-9.654,-0.001,1.527,-0.052623,0.008052,0.019381,-0.2827746537957381,0.8207284216766124,-0.2799213560085705,-0.40998461858128304
107,2.6642568111419678,0.6563,-0.1163,0.1034,-9.642,0.133,1.545,-0.068612,0.006036,0.015593,-0.3281939989758596,0.7942536271494062,-0.3453296078411171,-0.37709062139563454
108,2.705643653869629,0.6549,-0.1168,0.1047,-9.635,0.117,1.523,-0.038945,-0.002091,0.016148,-0.3768422840757283,0.7578104475744181,-0.4108649848673509,-0.33897371976246116
109,2.714589834213257,0.6552,-0.1174,0.1055,-9.627,0.151,1.546,-0.007761,0.000991,0.015133,-0.44062585084505246,0.7025292337475261,-0.4811361740765042,-0.2842701484366786
110,2.74145770072937,0.6552,-0.1192,0.1042,-9.651,0.113,1.557,0.010043,2.6e-05,0.015724,-0.5093718722679008,0.6281275320381822,-0.5500123527295702,-0.20852460546131918
111,2.780238389968872,0.6555,-0.1163,0.1031,-9.66,0.069,1.562,0.009201,-0.007301,0.00998,-0.5555708188169025,0.5632932465888494,-0.5935344731111393,-0.14750800946115614
112,2.788248062133789,0.6557,-0.1187,0.1034,-9.658,0.094,1.587,0.022567,-0.015111,0.006752,-0.5855539766270752,0.5126748589623065,-0.6186843696722022,-0.10733443141652041
113,2.814891815185547,0.6547,-0.1166,0.1045,-9.628,0.111,1.555,0.040571,-0.017129,0.003162,-0.6072255722779849,0.47629873804926415,-0.6301121068773494,-0.08587985369654294
114,2.839482069015503,0.6562,-0.1174,0.1053,-9.648,0.085,1.574,0.049616,-0.018048,-0.000261,-0.6238707589879706,0.45090755919003234,-0.6338386662711568,-0.07560551755435624
115,2.873138666152954,0.6557,-0.1168,0.1037,-9.649,0.092,1.544,0.057146,-0.018784,-0.001582,-0.6370811921263337,0.43316660358368686,-0.6333233233358313,-0.07345622027793558
116,2.888448715209961,0.6568,-0.1155,0.1045,-9.62,0.058,1.515,0.060893,-0.02548,-0.007746,-0.644366816183586,0.4293533271416886,-0.6263807401310504,-0.08996830034333408
117,2.913275718688965,0.6562,-0.1165,0.1018,-9.646,0.035,1.508,0.063003,-0.029477,-0.012161,-0.6383009752885668,0.4522692763086394,-0.6077588717226514,-0.13657789167846238
118,2.9392261505126953,0.6573,-0.1171,0.1032,-9.693,0.023,1.546,0.06385,-0.032292,-0.018785,-0.6082831701602089,0.5082665918866236,-0.5673750743560122,-0.22302955291017437
119,2.9641647338867188,0.6557,-0.1155,0.1016,-9.666,0.014,1.517,0.058626,-0.033261,-0.024841,-0.5405565538679483,0.5920820651000174,-0.4927985099633948,-0.33821157407038055
120,2.9998886585235596,0.6573,-0.1144,0.1037,-9.671,0.02,1.475,0.056675,-0.031212,-0.029526,-0.43269128873872353,0.678510416064633,-0.3808150389549737,-0.4553918862333223
121,3.0161499977111816,0.6565,-0.1147,0.1032,-9.654,0.076,1.504,0.061749,-0.026947,-0.030117,-0.2944254459877479,0.7446335401847402,-0.2400363303856982,-0.5488324951037655
122,3.0464107990264893,0.6579,-0.113,0.1034,-9.659,0.049,1.539,0.054014,-0.022421,-0.024322,-0.16990360433217624,0.7734001056880541,-0.11398439392217707,-0.5999938330506706
123,3.0639894008636475,0.6574,-0.1128,0.1008,-9.683,0.008,1.636,0.05022,-0.025527,-0.020809,-0.06036128696129152,0.7780287579577835,-0.004708314980358508,-0.6253044047478723
124,3.087914228439331,0.6587,-0.1128,0.1013,-9.632,0.024,1.623,0.035238,-0.032375,-0.01351,0.025444806014931598,0.7645033817697312,0.07536002388918489,-0.6396936828740211
125,3.1135387420654297,0.6584,-0.1128,0.1008,-9.657,0.023,1.596,0.025979,-0.036684,-0.006155,0.0789524893549632,0.7447279531813151,0.11812225007019136,-0.6520689489719462
126,3.1519405841827393,0.6589,-0.1122,0.1027,-9.691,0.036,1.63,0.032242,-0.036267,-0.001342,0.09882703654668738,0.7274827285840089,0.12577055231259504,-0.6672210013408975
127,3.166229009628296,0.6587,-0.1103,0.1013,-9.662,0.027,1.615,0.036007,-0.034944,0.003252,0.08503282369068059,0.7151299229522601,0.09848411955720654,-0.6867747013311761
128,3.188868761062622,0.6595,-0.1117,0.1027,-9.669,0.019,1.626,0.024952,-0.030722,0.006625,0.04810142066037981,0.7055870214770475,0.04822422435387763,-0.7053422095969224
129,3.2133617401123047,0.6571,-0.112,0.1008,-9.581,0.043,1.686,0.001649,-0.025299,0.001879,0.02858647905979428,0.6950761463419597,0.016886652302706556,-0.7181690643402723
130,3.2409379482269287,0.6597,-0.113,0.1,-9.604,0.165,1.6,0.008254,-0.024671,-0.006642,0.04550850743879917,0.6832761737954908,0.02253752694155306,-0.7283918629099628
131,3.2706053256988525,0.659,-0.1112,0.1005,-9.644,0.197,1.67,0.061771,-0.027466,-0.016329,0.10040251117083561,0.6685076655452988,0.06468494939178962,-0.7340522421326339
132,3.288567066192627,0.66,-0.1125,0.0995,-9.647,0.182,1.74,0.112929,-0.021392,-0.024749,0.18031221998394922,0.6470488255074134,0.12779772895716873,-0.7297143696045234
133,3.3134994506835938,0.6577,-0.1095,0.0992,-9.598,0.081,1.818,0.124165,-0.017841,-0.029327,0.27894432670672936,0.6154219706771659,0.20855318171842463,-0.7070724368840047
134,3.3396260738372803,0.6597,-0.1109,0.1,-9.611,0.068,1.876,0.120065,-0.018482,-0.034491,0.4050909240359072,0.5561137430349443,0.31538418000339047,-0.6535837108396965
135,3.366973638534546,0.6595,-0.1079,0.099,-9.663,0.098,1.809,0.117099,-0.014973,-0.039651,0.5404346269687796,0.45853237554699877,0.43121506890640365,-0.5583296865619698
136,3.408463478088379,0.6608,-0.1079,0.099,-9.669,0.044,1.698,0.11508,-0.000778,-0.04159,0.6538540131274347,0.3304352153431656,0.5331651369394681,-0.4231104285296953
137,3.412788152694702,0.6582,-0.1082,0.0997,-9.698,-0.053,1.664,0.132342,0.007344,-0.042699,0.7298266585857376,0.17945093545945856,0.6077146501351477,-0.2565800346703103
138,3.4570820331573486,0.6599,-0.1055,0.103,-9.659,-0.174,1.726,0.135017,0.008737,-0.043922,0.7633424197811942,0.0027667103879686628,0.6429228263808908,-0.06285646183669136
139,3.4625277519226074,0.6601,-0.1041,0.1011,-9.615,-0.271,1.761,0.092065,0.010676,-0.04065,0.7465838560125825,-0.1678899138968861,0.6320605599459634,0.12216779982415527
140,3.491422414779663,0.6604,-0.1044,0.103,-9.576,-0.244,1.769,0.00192,0.01102,-0.037448,0.6742439861396959,-0.352233586900331,0.5683494114847829,0.31353706938523485
141,3.524447202682495,0.6591,-0.1036,0.0982,-9.608,-0.051,1.724,-0.040692,0.007792,-0.040603,-0.743884037231636,-0.10825721811627745,-0.657260760242928,0.0540851820980133
142,3.5381906032562256,0.6614,-0.1044,0.1014,-9.673,0.13,1.685,-0.017398,-0.000916,-0.047494,-0.7247319544846527,0.15509855153262744,-0.6388330200866591,-0.2063986577192174
143,3.564391851425171,0.6589,-0.1006,0.1008,-9.655,0.263,1.74,0.051463,-0.006293,-0.045451,-0.6238923343012777,0.37427751998973297,-0.5347662438713223,-0.42976709697950966
144,3.5892059803009033,0.6607,-0.1017,0.1009,-9.571,0.313,1.842,0.097465,-0.013465,-0.037408,-0.5027820300837011,0.5040905836028631,-0.4080444741017726,-0.5714915755309478
145,3.6143932342529297,0.6597,-0.1012,0.0995,-9.548,0.303,1.904,0.123509,-0.021211,-0.03372,-0.3917830137204849,0.5727855998854307,-0.28888288822343455,-0.6595221024466645
146,3.639209508895874,0.6602,-0.1001,0.1009,-9.604,0.187,1.822,0.156705,-0.033921,-0.026434,-0.3213852684326383,0.5914011632993007,-0.2069574050810587,-0.7100174686335747
147,3.664233446121216,0.6605,-0.0974,0.1001,-9.603,0.049,1.793,0.19273,-0.050239,-0.020376,-0.2993976119801426,0.5737486269632979,-0.17444938682406524,-0.7421192589031942
148,3.6913747787475586,0.6618,-0.0979,0.0998,-9.611,-0.092,1.754,0.185944,-0.052305,-0.016249,-0.3044019303370544,0.5364080771263147,-0.17815183905135015,-0.7667253496809314
149,3.7145049571990967,0.6606,-0.0961,0.099,-9.611,-0.231,1.763,0.162794,-0.046241,-0.014739,-0.3141899581600237,0.4950965195975691,-0.1995701542170781,-0.785070608301921
150,3.7403531074523926,0.6619,-0.0942,0.0982,-9.63,-0.242,1.668,0.12714,-0.033773,-0.020847,-0.2809904831243513,0.47489124153751117,-0.18638143237527105,-0.8128865965005495
151,3.764995574951172,0.6609,-0.0942,0.0977,-9.634,-0.238,1.574,0.109911,-0.030669,-0.027864,-0.20321566434984467,0.4730054300324439,-0.13128029844538788,-0.8471922687104527
152,3.814487934112549,0.6619,-0.0942,0.0985,-9.665,-0.16,1.542,0.119912,-0.023957,-0.036246,-0.0763947430375395,0.47232558559290055,-0.03269990012994855,-0.8774982056745434
153,3.8160998821258545,0.6614,-0.0923,0.1004,-9.686,-0.156,1.682,0.133447,-0.01994,-0.043486,0.0884547554514279,0.45309113679735635,0.09271487681100102,-0.8822063985324684
154,3.84971022605896,0.6624,-0.0936,0.0985,-9.661,-0.055,1.687,0.117409,-0.015264,-0.04173,0.2609924162610599,0.4015488701282663,0.22443706896910118,-0.8486869067126493
155,3.8650310039520264,0.6604,-0.0912,0.0982,-9.636,-0.051,1.775,0.114559,-0.013933,-0.029765,0.38700567889888093,0.34083910250237337,0.31052668172728737,-0.7985164310399836
156,3.9038217067718506,0.6636,-0.0898,0.0975,-9.599,-0.146,1.89,0.098569,-0.014126,-0.018121,0.4553386758002569,0.30197194076940465,0.3393571058875914,-0.765712995835924
157,3.9161462783813477,0.6612,-0.0899,0.099,-9.625,-0.177,1.861,0.053554,-0.01002,-0.009446,0.4837785181812182,0.285787404578215,0.3398808631809397,-0.754165037358675
158,3.9421744346618652,0.6631,-0.0893,0.0991,-9.643,-0.201,1.838,0.021761,-0.006763,-0.009765,0.5115295657276876,0.2643532324827953,0.35347073038399607,-0.7372335550042097
159,3.9736711978912354,0.6615,-0.0877,0.0977,-9.597,-0.141,1.763,0.020828,-0.009308,-0.015358,0.5527817351149521,0.22441832129849798,0.3862386861777214,-0.7034830827309032
160,3.9901480674743652,0.6625,-0.0893,0.0991,-9.62,-0.172,1.74,0.031523,-0.009295,-0.02157,0.6130674224881957,0.1575318567486781,0.43186022670328794,-0.642517543873145
161,4.014167785644531,0.661,-0.0869,0.0998,-9.607,-0.178,1.736,0.019973,-0.009935,-0.026547,0.678975351886862,0.059043319172367104,0.48422407562580394,-0.5486651096758001
162,4.03971266746521,0.6628,-0.0885,0.0983,-9.619,-0.1,1.847,0.01163,-0.017399,-0.027581,0.7310303464635642,-0.0693734965335435,0.5244334383531877,-0.4309890013273254
163,4.064505100250244,0.6616,-0.0858,0.0959,-9.598,-0.069,1.781,-0.004916,-0.011582,-0.0292,0.7558527511000641,-0.21721070830906197,0.5422437662903319,-0.29576650379922304
164,4.089097738265991,0.6631,-0.0877,0.0969,-9.643,-0.045,1.753,-0.01086,-0.008982,-0.026031,0.7468546097046016,-0.3634453596635562,0.5331784722665112,-0.1607369876959397
165,4.1268696784973145,0.6623,-0.0863,0.098,-9.633,-0.024,1.787,0.009643,-0.009509,-0.026258,0.7134866815986085,-0.49551117219395036,0.49401660541551895,-0.036783515140760725
166,4.1437087059021,0.6621,-0.0861,0.0983,-9.634,-0.093,1.736,0.020904,-0.008557,-0.024636,0.6644162916957768,-0.6045131607285011,0.4342118895267951,0.0676377470709936
167,4.164423704147339,0.6621,-0.0839,0.0959,-9.597,-0.115,1.787,0.008693,0.01745,-0.020424,0.5997373970398636,-0.6961108568147739,0.3609983950053691,0.15945183730517992
168,4.189602375030518,0.6639,-0.0845,0.0978,-9.576,-0.178,1.827,-0.013453,-0.005762,-0.023234,0.5120848106168503,-0.7803713730023848,0.27049647545404637,0.23584173443395462
169,4.21437931060791,0.6624,-0.0826,0.0975,-9.611,-0.231,1.83,-0.038033,-0.004487,-0.028251,0.38364063475315596,-0.8584514446719761,0.14987102886081805,0.3056462910211618
170,4.253704071044922,0.6634,-0.0853,0.0993,-9.612,-0.315,1.818,-0.050436,-0.007457,-0.037181,0.19342845327353644,-0.9159741952223466,-0.02625004325845176,0.35055333742515027
171,4.264116525650024,0.6603,-0.0839,0.0985,-9.662,-0.336,1.816,-0.081485,-0.001783,-0.048624,-0.06750352991821588,-0.9053638207350984,-0.26423111856428605,0.3254866226664187
172,4.307812929153442,0.6642,-0.0834,0.0983,-9.639,-0.206,1.818,-0.100167,0.009858,-0.064151,-0.3736099273031742,-0.7443356113656231,-0.5314661963163019,0.15467321050060095
173,4.3129801750183105,0.6611,-0.0828,0.0972,-9.664,-0.178,1.841,-0.075418,0.01504,-0.073794,-0.5703548271392664,-0.3983523156342017,-0.6922147658298659,-0.19196229253400415
174,4.349429130554199,0.6645,-0.0815,0.0991,-9.594,-0.116,1.951,-0.029497,0.020136,-0.075969,-0.5214815156946233,-0.0037384901095852685,-0.6249078891497615,-0.580976060228757
175,4.363937139511108,0.663,-0.0804,0.0983,-9.595,-0.088,1.92,-0.03296,0.025214,-0.069959,-0.2663021327064946,0.27856932023764286,-0.35887339519696315,-0.8501130478695843
176,4.38852334022522,0.6633,-0.0785,0.0994,-9.635,-0.05,1.877,-0.031103,0.026322,-0.062018,0.06443282456570618,0.37091223452718386,-0.013595668671591808,-0.9263302236189362
177,4.414653062820435,0.6618,-0.0769,0.1004,-9.567,-0.006,1.842,-0.008748,0.024222,-0.053626,0.3592314213020375,0.2974395718737547,0.2873298287067749,-0.8366146404218677
178,4.4580793380737305,0.6625,-0.0783,0.1012,-9.562,-0.016,1.789,0.006102,0.02169,-0.036152,0.5407303363663463,0.15810816155782484,0.469860810613276,-0.6795905614646057
179,4.462799072265625,0.662,-0.0764,0.1004,-9.609,-0.048,1.833,0.030542,0.010465,-0.022151,0.6253781503656203,0.04282232152220708,0.5478147225715846,-0.5540464308688778
180,4.500570297241211,0.6628,-0.0769,0.1007,-9.608,-0.208,1.735,0.056168,0.001404,-0.014903,0.6616824803589422,-0.015141501029001747,0.5673898423749549,-0.48991407093729283
181,4.51301908493042,0.661,-0.0761,0.0991,-9.62,-0.38,1.686,0.05237,0.000631,-0.016528,0.6917626705777515,-0.07202440898847001,0.5761991123221726,-0.4292685349104205
182,4.539256811141968,0.6629,-0.0742,0.1007,-9.644,-0.371,1.738,0.031951,-0.004322,-0.021711,0.7165922504308777,-0.15490707937454298,0.5844567009384231,-0.3477207329312334
183,4.564678192138672,0.6613,-0.0726,0.101,-9.649,-0.271,1.793,0.020926,-0.006775,-0.02027,0.7273913066416611,-0.2600078934756581,0.5836320838897612,-0.2503425113858667
184,4.589960336685181,0.6618,-0.0731,0.1018,-9.601,-0.246,1.819,0.017913,-0.000913,-0.015008,0.7256041441939932,-0.34257709077615267,0.5723160342384643,-0.16909736768325914
185,4.613910436630249,0.6602,-0.0756,0.1017,-9.598,-0.224,1.841,0.006938,-0.004758,-0.013003,0.7153620530542968,-0.4103881976927579,0.5558640860967818,-0.10418146683657842
186,4.655946731567383,0.6613,-0.0726,0.1028,-9.614,-0.216,1.79,-0.002341,-0.009061,-0.010941,0.7000434150451672,-0.4690900341100642,0.535747550872208,-0.053556686650217705
187,4.664876461029053,0.6608,-0.0729,0.101,-9.616,-0.229,1.747,0.002256,-0.005601,-0.006696,0.6872899052122131,-0.5061152083197856,0.5204561251790827,-0.024604956093884467
188,4.68903374671936,0.6618,-0.0734,0.1023,-9.664,-0.291,1.753,0.020782,0.00294,-0.006233,0.6797750166421055,-0.5294746669786611,0.5075054104977463,-0.0008729791379342711
189,4.71449089050293,0.6601,-0.0715,0.1036,-9.605,-0.391,1.766,0.035204,0.008896,-0.006021,0.6777844565199453,-0.5433852975017344,0.4948236127019372,0.02214139271855306
190,4.737834692001343,0.6619,-0.0718,0.102,-9.617,-0.447,1.746,0.033528,0.011161,-0.008995,0.6727148095616575,-0.561733259447558,0.4784953223058945,0.05433927454635065
191,4.7631516456604,0.6611,-0.0697,0.1047,-9.628,-0.472,1.795,0.010316,0.006223,-0.008606,0.6544440630068062,-0.5966944264389804,0.4540779471913716,0.09732393192976482
192,4.795313119888306,0.6613,-0.0729,0.1036,-9.608,-0.4,1.805,-0.019392,0.003107,-0.002098,0.6319734523684766,-0.6282667299063966,0.4345711327977472,0.1305312304893901
193,4.815251111984253,0.6593,-0.0723,0.1036,-9.629,-0.337,1.752,-0.052833,0.008764,0.004923,0.6167936903742679,-0.6391988512894369,0.43689016257790725,0.14183567205539616
194,4.863048791885376,0.661,-0.0742,0.1015,-9.615,-0.27,1.787,-0.059142,0.002928,0.00824,0.6083116324234947,-0.6370546749931314,0.4520138945860177,0.14071864847574123
195,4.864924907684326,0.6605,-0.0729,0.1049,-9.593,-0.257,1.735,-0.043438,-0.0002,0.008519,0.6156172390823575,-0.6158228227473594,0.47780952843075175,0.11608497090008069
196,4.899760723114014,0.6613,-0.074,0.1065,-9.611,-0.206,1.76,-0.02349,0.001831,0.003895,0.6199715415976645,-0.6011413196095451,0.4941741574612606,0.10028112267302935
197,4.913917541503906,0.6589,-0.0767,0.1065,-9.622,-0.222,1.753,-0.003058,0.001608,-0.0027,0.6155902621057718,-0.6047757684409585,0.49426960361790406,0.10484492379984509
198,4.951216220855713,0.6602,-0.0761,0.1055,-9.656,-0.311,1.786,0.025953,-0.00191,-0.003699,0.6110196396719709,-0.6158573519830953,0.48363262259985196,0.11607845752202958
199,4.967427730560303,0.6589,-0.0748,0.1057,-9.612,-0.342,1.809,0.031755,0.003295,8.8e-05,0.6163606295390355,-0.6146216152575184,0.47762026501035026,0.11924230316429574
200,4.989668369293213,0.6602,-0.075,0.1065,-9.613,-0.441,1.79,-0.000856,0.01286,0.004043,0.6216014268564036,-0.6063806142185751,0.48067784708828576,0.12191400308642714
201,5.020962238311768,0.6579,-0.0767,0.1052,-9.631,-0.492,1.815,-0.031535,0.013505,-7.6e-05,0.607235679889084,-0.6190034683390722,0.47639017784808063,0.14543704378085853
202,5.0476233959198,0.6592,-0.0767,0.1054,-9.622,-0.398,1.779,-0.056628,0.0056,-0.007389,0.5620234559899973,-0.6661021769279615,0.44944590419158736,0.19605076897144966
203,5.064271926879883,0.6579,-0.075,0.1062,-9.629,-0.288,1.864,-0.053033,0.001282,-0.008826,0.4983496852819407,-0.7244695141243807,0.40328912993341115,0.2532773024993093
204,5.090191125869751,0.6594,-0.0769,0.1065,-9.6,-0.158,1.907,-0.05182,0.00106,-0.004419,0.44214278501910986,-0.7659084169144785,0.36518277747944167,0.29075005346087757
205,5.11487078666687,0.6579,-0.0761,0.1049,-9.609,-0.121,1.827,-0.035274,0.006074,0.001788,0.40854840271444903,-0.7847374250521343,0.34686866295252383,0.3113800042127735
206,5.140743970870972,0.6594,-0.0772,0.1054,-9.638,-0.184,1.768,-0.007299,0.006735,0.004586,0.4057631117769869,-0.7819333859179559,0.3519479632563609,0.3163370169101888
207,5.164779424667358,0.6563,-0.0767,0.1046,-9.632,-0.224,1.763,0.009776,0.008861,-0.001481,0.3996202049972411,-0.7836723134926779,0.34543132183400116,0.3268617425135765
208,5.203976154327393,0.6581,-0.0769,0.1041,-9.632,-0.305,1.758,0.014489,0.00676,-0.004987,0.3841072873843981,-0.7929096588619894,0.32612229657188474,0.34263699791505703
209,5.21533203125,0.6578,-0.0788,0.1044,-9.61,-0.305,1.772,0.027582,0.002825,-0.008775,0.35362710765872135,-0.81167247336903,0.28873400475860794,0.36437390027276184
210,5.2642271518707275,0.6578,-0.0791,0.1052,-9.631,-0.333,1.748,0.030639,0.006008,-0.011086,0.3161752391085825,-0.831174572682674,0.24212282819900177,0.38801879331460487
211,5.26581072807312,0.655,-0.0767,0.1049,-9.613,-0.353,1.727,0.029696,0.008799,-0.008308,0.27414664156310536,-0.8475258272062154,0.19192511619104685,0.41195672213612927
212,5.290096282958984,0.6571,-0.078,0.1041,-9.595,-0.312,1.784,0.022559,0.00896,-0.004768,0.24807940314226462,-0.854752112745387,0.15832827331824775,0.4275366573312016
213,5.319676637649536,0.6555,-0.0775,0.1051,-9.646,-0.345,1.774,0.007597,0.006568,-0.00455,0.22164631937796747,-0.8605113234659392,0.12977317335992727,0.4399455588697219
214,5.338761329650879,0.6565,-0.0788,0.1067,-9.645,-0.354,1.783,0.016918,0.008702,-0.00102,0.2071806136831671,-0.8619167579858961,0.11343717938765649,0.44867326859254836
215,5.364513158798218,0.654,-0.0753,0.1057,-9.613,-0.32,1.773,0.005509,0.007462,-0.001706,0.19188228078967165,-0.8633053337099788,0.09561769197378447,0.4568832981062694
216,5.390918254852295,0.6568,-0.0769,0.1057,-9.587,-0.289,1.775,-0.000246,0.010829,-0.001326,0.16704831643092363,-0.8653497526525743,0.0718570511186533,0.46701309378458944
217,5.413489818572998,0.6545,-0.0769,0.1035,-9.639,-0.279,1.736,-0.000971,0.011068,0.001108,0.1498149586280105,-0.8651355789952181,0.05745042469459029,0.47517928914285373
218,5.461272239685059,0.655,-0.0767,0.1027,-9.675,-0.315,1.729,0.01513,0.007573,0.001413,0.15074436469262037,-0.8615033572321521,0.05828758910179534,0.48134255883710253
219,5.4636805057525635,0.6543,-0.074,0.1046,-9.616,-0.322,1.744,0.011969,0.006106,0.003052,0.16638552492710637,-0.8575211647154191,0.07096799381323496,0.481598227793632
220,5.504899501800537,0.655,-0.078,0.1025,-9.627,-0.313,1.765,0.00023,0.004209,0.005487,0.18694040258612915,-0.8515426402015691,0.09212087010339315,0.4810843617193044
221,5.513885259628296,0.6532,-0.0769,0.104,-9.643,-0.31,1.707,-0.005767,0.004357,0.006307,0.2130340816047566,-0.8440234871979689,0.12069453064551026,0.4771516146941742
222,5.540340900421143,0.655,-0.0769,0.1043,-9.638,-0.301,1.731,1.8e-05,0.007361,0.011935,0.25047951050839257,-0.8313225816969761,0.16037535040799686,0.4695130743202609
223,5.563457727432251,0.6547,-0.078,0.1046,-9.615,-0.311,1.718,-0.003851,0.010691,0.014905,0.30948573641266147,-0.8060974767681746,0.22258625453309772,0.452637599187277
224,5.589365243911743,0.6553,-0.0767,0.1062,-9.605,-0.291,1.673,0.000329,0.013143,0.019996,0.3867483562082888,-0.7615617490456013,0.3041283686817895,0.4218475396677629
225,5.6134192943573,0.654,-0.0767,0.1051,-9.598,-0.311,1.638,0.016172,0.011852,0.022564,0.47496004227161354,-0.693587082035483,0.3946187038432778,0.37097977903910445
226,5.639183759689331,0.6545,-0.0783,0.1043,-9.607,-0.336,1.717,0.015597,0.010304,0.020064,0.551786746402886,-0.6154006746362041,0.47183674800873565,0.3068932703399717
227,5.670907020568848,0.6521,-0.0777,0.1048,-9.648,-0.327,1.66,0.016295,0.010639,0.0173,0.6097442251827974,-0.537322342260969,0.5302429945040694,0.24153477418950173
228,5.696351766586304,0.6529,-0.0772,0.1046,-9.655,-0.279,1.671,0.019007,0.00999,0.014243,0.6525083868259853,-0.4617295385519697,0.573446816477928,0.1794363035220716
229,5.713571548461914,0.6526,-0.0783,0.108,-9.645,-0.289,1.644,0.031091,0.014316,0.014473,0.686235764900847,-0.38348315092771196,0.6068778234174736,0.11713434752271656
230,5.739912271499634,0.6539,-0.0799,0.1059,-9.657,-0.335,1.674,0.038824,0.011597,0.012173,0.7108089711463084,-0.30781719789746875,0.6297921433925763,0.05797443693095927
231,5.76462197303772,0.6534,-0.0783,0.1054,-9.636,-0.343,1.695,0.040164,0.011234,0.009875,0.7274310838653559,-0.2352890711390709,0.6445793249617475,0.0007517052909867261
232,5.805891275405884,0.6544,-0.0788,0.1043,-9.59,-0.316,1.691,0.020187,0.01236,0.01107,0.7356886479353425,-0.1738768994729985,0.6529070549408039,-0.04734358179574388
233,5.8144690990448,0.6526,-0.0791,0.1054,-9.624,-0.315,1.71,0.009017,0.010634,0.00982,0.7375616511439322,-0.12055246019991578,0.658775586465236,-0.08651382420728199
234,5.859725713729858,0.6542,-0.0788,0.1064,-9.647,-0.345,1.672,0.009459,0.009655,0.006195,0.7367694380857298,-0.08131024207330412,0.6614249248013603,-0.1143525622289836
235,5.864291429519653,0.6534,-0.0783,0.1075,-9.668,-0.313,1.679,0.025335,0.0065,0.004183,0.7356766967213917,-0.04900948243391012,0.6614528418713282,-0.13732445708250718
236,5.897867441177368,0.6542,-0.0794,0.1078,-9.628,-0.273,1.713,0.021754,0.006224,0.003801,0.7344133501357649,-0.020671256596486054,0.6599153619152349,-0.15723054856283192
237,5.915441274642944,0.6524,-0.0794,0.108,-9.637,-0.25,1.624,-0.007093,0.00878,0.001998,0.7329133324497834,-0.012191970288616016,0.6619519851738511,-0.1565534167695883
238,5.944429874420166,0.6547,-0.0791,0.1072,-9.625,-0.239,1.671,-0.003748,0.003304,0.000714,0.7319288173666354,-0.015113751937153364,0.6654655702209201,-0.14562745503924207
239,5.964210271835327,0.6534,-0.0788,0.1083,-9.64,-0.223,1.641,0.012589,0.00019,-0.000548,0.7314501034462064,-0.01130579988931163,0.6658223910509946,-0.14674286569551814
240,5.9902098178863525,0.6552,-0.0783,0.1078,-9.617,-0.222,1.742,0.028669,-0.004711,9.9e-05,0.7315891816112947,0.001143992532253224,0.6626822002750359,-0.16008829460344548
241,6.0168116092681885,0.6544,-0.0791,0.1067,-9.63,-0.231,1.709,0.012123,-0.005451,0.003586,0.7301933435786646,0.022231865660634176,0.6575823186066554,-0.1841437465638003
242,6.039446115493774,0.6549,-0.0802,0.107,-9.68,-0.256,1.749,-0.0037,-0.006387,0.006303,0.7256783825792298,0.050353405801514595,0.6510583972772002,-0.21674497206676852
243,6.071900367736816,0.6545,-0.0788,0.1056,-9.648,-0.227,1.631,-0.012126,-0.005049,0.010058,0.7172386941920055,0.084959926998666,0.6427988090552632,-0.2552648770106527
244,6.098229646682739,0.6557,-0.0794,0.1054,-9.629,-0.201,1.705,-0.006146,-0.000483,0.012124,0.7007378119051095,0.1384377859903462,0.6283836106458595,-0.30811610838806075
245,6.113580942153931,0.6544,-0.0796,0.1064,-9.599,-0.238,1.668,-0.004972,0.000756,0.011705,0.6785791767860208,0.19523502874137358,0.6078055962187081,-0.36329869472650433
246,6.14431095123291,0.656,-0.0791,0.1046,-9.645,-0.274,1.678,-0.008667,1e-05,0.00961,0.6542550029317022,0.2450378554180924,0.58608051924743,-0.41038575207919104
247,6.163959741592407,0.655,-0.0788,0.1049,-9.634,-0.299,1.688,-0.014648,-0.000521,0.005368,0.6420104691077091,0.2656469111354922,0.576179376823274,-0.43043187833130464
248,6.210874795913696,0.657,-0.0796,0.1054,-9.653,-0.276,1.661,-0.021361,-0.004407,0.001115,0.6412917147405103,0.2638538366594663,0.5774388337041191,-0.4309181857565103
249,6.214101552963257,0.656,-0.0796,0.1054,-9.625,-0.271,1.698,-0.012416,0.004114,-0.00128,0.647369769390286,0.2513582880719947,0.5866617168200581,-0.41660463597375647
250,6.252181529998779,0.657,-0.0802,0.1046,-9.637,-0.251,1.723,-0.009269,0.003555,0.000603,0.6527842462355674,0.24043408105036593,0.5947460735415953,-0.40291598199002177
251,6.264059782028198,0.6555,-0.0785,0.1046,-9.633,-0.247,1.749,-0.012385,0.002944,0.003917,0.6509437955489018,0.24353015246088322,0.5957512844771238,-0.40254893730157304
252,6.307076454162598,0.6588,-0.0802,0.1054,-9.628,-0.26,1.735,-0.024633,0.002186,0.006569,0.6428500243108819,0.2573247024122867,0.5914484678569433,-0.4131785977535636
253,6.315022706985474,0.6576,-0.0794,0.1057,-9.659,-0.217,1.716,-0.032735,0.002441,0.007083,0.6343120144333328,0.27022246677478295,0.5873778133172534,-0.4238105605318495
254,6.339515686035156,0.6581,-0.0796,0.1049,-9.644,-0.235,1.744,-0.02654,-0.001688,0.009964,0.6154429034911689,0.2990890952433357,0.5720499126980937,-0.45225506412972993
255,6.3751060962677,0.6563,-0.0791,0.1046,-9.658,-0.166,1.718,-0.030278,0.001612,0.013434,0.5842791816925956,0.3422783900862899,0.5450240255101645,-0.49438057520220585
256,6.388543128967285,0.6599,-0.081,0.1036,-9.655,-0.188,1.764,-0.033194,-0.002695,0.014724,0.5397206495807914,0.39484421431561534,0.5048310902456836,-0.5458436013721583
257,6.414385080337524,0.6593,-0.0826,0.1041,-9.6,-0.2,1.707,-0.037441,-0.000401,0.014917,0.4917981989988824,0.44135443294735016,0.46150302544564337,-0.5919085685168755
258,6.438894510269165,0.6601,-0.081,0.1038,-9.636,-0.184,1.706,-0.037637,0.002993,0.015385,0.4390739382244864,0.4850690754639938,0.4138241290237107,-0.6329863024097074
259,6.4706525802612305,0.6586,-0.0783,0.1052,-9.619,-0.178,1.71,-0.028218,0.003397,0.012259,0.3979076908564019,0.5158583005317142,0.377414326897804,-0.6581170938230788
260,6.488727569580078,0.6598,-0.0821,0.1054,-9.633,-0.186,1.635,-0.018646,0.001164,0.012472,0.34550492528598314,0.548585739384219,0.3281712068715253,-0.6870106928773988
261,6.513379335403442,0.6591,-0.0815,0.1025,-9.627,-0.178,1.715,-0.007885,-0.000174,0.008748,0.2993250310866574,0.5726494204417542,0.28383401493870486,-0.708459892299112
262,6.538190841674805,0.6604,-0.0812,0.1041,-9.647,-0.155,1.7,-0.008958,0.000489,0.009978,0.24631089357688554,0.5947295147858843,0.2319879164964281,-0.7292525999594031
263,6.563556432723999,0.6609,-0.081,0.1033,-9.645,-0.158,1.663,-0.002954,-0.0014,0.011266,0.18501349902827968,0.6143542947240913,0.17170516480932102,-0.7475668144782651
264,6.589629173278809,0.6606,-0.0823,0.1038,-9.617,-0.15,1.679,0.013362,-0.00028,0.014729,0.1065627864251163,0.6306265847574796,0.09292695439537502,-0.7630983319947909
265,6.614602565765381,0.6601,-0.082,0.1046,-9.625,-0.158,1.678,0.026495,-0.000221,0.015397,0.006758000131605102,0.6385994530009279,-0.008632709984222414,-0.769461203946934
266,6.640998125076294,0.6617,-0.0815,0.1049,-9.621,-0.175,1.668,0.033451,-0.002224,0.01802,-0.11057555186517344,0.6289227052933999,-0.12880856032179475,-0.7587078705825913
267,6.674569845199585,0.6599,-0.0804,0.1041,-9.647,-0.223,1.675,0.025139,-0.001778,0.016168,-0.22241048204058456,0.6001708737033314,-0.242994788780182,-0.7288909606123054
268,6.700706958770752,0.6619,-0.0823,0.1057,-9.635,-0.224,1.649,0.027472,-0.002264,0.013329,-0.31503597484425594,0.5601218658532925,-0.3375547849328817,-0.6878027312506628
269,6.71367335319519,0.6614,-0.0815,0.1031,-9.606,-0.198,1.641,0.036121,-0.003203,0.008493,-0.3843250251624176,0.5170931708026737,-0.40998643593504863,-0.6456160237265028
270,6.738660097122192,0.6619,-0.0837,0.1054,-9.66,-0.185,1.647,0.045086,-0.005357,0.010958,-0.4468783470259677,0.4674446698293536,-0.4760923026470461,-0.5959289747677141
271,6.775879383087158,0.6614,-0.082,0.1036,-9.632,-0.184,1.682,0.065286,-0.007027,0.02025,-0.5358537924377138,0.3685470653423847,-0.5714001347495142,-0.500535373141472
272,6.788159608840942,0.6624,-0.082,0.1047,-9.644,-0.222,1.831,0.052472,-0.001572,0.02352,-0.6179681960918255,0.22769775056222355,-0.6600150375901361,-0.3614542753417228
273,6.820523738861084,0.6616,-0.0829,0.1052,-9.618,-0.312,1.707,-0.003821,0.001901,0.022697,-0.6660972553014668,0.08691748450793668,-0.7085608484683837,-0.21610488514707193
274,6.851959228515625,0.6632,-0.0826,0.1052,-9.644,-0.219,1.641,-0.023975,-0.001317,0.013764,-0.68197025301454,-0.009451426949128372,-0.7216703739943537,-0.11840234723500681
275,6.862727165222168,0.6619,-0.0823,0.1052,-9.643,-0.157,1.638,-0.014734,-0.006914,0.005402,-0.6843588737634158,-0.05749497630121353,-0.7230639645629215,-0.0743354743843212
276,6.905225038528442,0.6629,-0.0823,0.1057,-9.634,-0.143,1.724,-0.006194,-0.000676,0.001858,-0.6840036792039468,-0.0800481493044482,-0.7229556894541483,-0.055374468072153626
277,6.912798881530762,0.6616,-0.0831,0.1041,-9.616,-0.147,1.693,-0.013025,0.000678,0.001017,-0.6844769630836428,-0.0883046300227418,-0.7221552787210099,-0.046747542606223325
278,6.955013751983643,0.6634,-0.0831,0.1055,-9.635,-0.126,1.638,-0.005238,-0.000875,-0.001562,-0.6849928636574634,-0.08350740462331424,-0.7218412283702492,-0.05250267742083009
279,6.964177370071411,0.6619,-0.0818,0.1041,-9.636,-0.186,1.692,-0.000267,-0.002206,-0.001766,-0.6850540036708094,-0.07930159178590845,-0.7218812744023803,-0.05744297400040449
280,6.988720655441284,0.6635,-0.0826,0.1028,-9.646,-0.14,1.682,-0.013449,0.001032,-0.001583,-0.6856733599334043,-0.06113917975321487,-0.7214324764546098,-0.0751613337648353
281,7.029465675354004,0.6616,-0.0837,0.1049,-9.611,-0.104,1.683,-0.014132,-0.002757,0.000996,-0.6863118954810172,-0.05779690257611575,-0.7207062416427554,-0.07885438117843907
282,7.0376482009887695,0.6629,-0.0823,0.1055,-9.624,-0.138,1.65,-0.002211,-0.001279,0.000626,-0.6867502567205024,-0.06810721686974375,-0.7203541574614186,-0.0694649532687634
283,7.064503908157349,0.6627,-0.0818,0.1025,-9.64,-0.172,1.744,0.003129,-0.00571,-0.001779,-0.6858571857067292,-0.07785932914182903,-0.7207458742307846,-0.0637434738567933
284,7.09006929397583,0.6647,-0.0834,0.1041,-9.598,-0.157,1.672,-0.008156,-0.009005,-0.004525,-0.6844561394429188,-0.058109601417159096,-0.7209137476255243,-0.09179562019266652
285,7.117008686065674,0.6629,-0.0831,0.1052,-9.652,-0.133,1.711,-0.002366,-0.009722,-0.005431,-0.6825615754767587,-0.03742525647244266,-0.7199005823159896,-0.12021729260699487
286,7.140127658843994,0.6642,-0.0842,0.1036,-9.643,-0.164,1.713,0.005329,-0.009948,-0.004791,-0.6797946255893825,-0.028218896220833678,-0.7195665193329369,-0.13894957780054995
287,7.164593935012817,0.6627,-0.0826,0.1036,-9.623,-0.196,1.678,0.002607,-0.005679,-0.00513,-0.6764612566107704,-0.007187185266164742,-0.7177997975082719,-0.16465710846972653
288,7.190418481826782,0.6642,-0.0831,0.1055,-9.619,-0.179,1.676,0.003844,-0.008334,-0.006918,-0.6710871529171103,0.018914195750385443,-0.7143339734447918,-0.1975126850895881
289,7.215503692626953,0.6637,-0.0834,0.1023,-9.624,-0.176,1.744,0.009763,-0.012619,-0.007418,-0.6636170983095395,0.04378582913423901,-0.7099250461148483,-0.23173600690674903
290,7.263700246810913,0.6635,-0.0829,0.1039,-9.647,-0.218,1.747,0.00616,-0.009339,-0.007644,-0.6539129617454632,0.07215123958476483,-0.7035781586291201,-0.26864439653138994
291,7.265350103378296,0.6632,-0.0837,0.1007,-9.617,-0.173,1.684,-0.008364,-0.007309,-0.007582,-0.641382951380562,0.10862669968109295,-0.692457437888859,-0.31197891997240834
292,7.3035430908203125,0.6653,-0.0829,0.1026,-9.641,-0.163,1.706,-0.007876,-0.007115,-0.009171,-0.6232171264474314,0.15392615251353564,-0.6746274584202272,-0.3643966866211196
293,7.313818454742432,0.6645,-0.0818,0.1034,-9.649,-0.153,1.741,-0.002606,-0.005302,-0.010518,-0.6013163967040616,0.19814473097987562,-0.6534601209493885,-0.4149061664624508
294,7.34072732925415,0.6658,-0.0834,0.1026,-9.633,-0.182,1.74,-0.000819,-0.003152,-0.010769,-0.5730877707885617,0.2466074347551611,-0.6263215555477951,-0.46741468649611984
295,7.3669047355651855,0.6635,-0.0815,0.1044,-9.638,-0.195,1.701,-0.00296,-0.00438,-0.011127,-0.538601796841734,0.2963379808125757,-0.5925411816752678,-0.5205639764578973
296,7.400899648666382,0.6655,-0.0831,0.1026,-9.628,-0.179,1.754,0.002762,-0.002745,-0.011178,-0.4993060755773395,0.34272773140231855,-0.5542242273822756,-0.5710224608558722
297,7.4145214557647705,0.664,-0.0823,0.1031,-9.625,-0.205,1.752,0.005501,-0.001589,-0.007697,-0.46640277381217116,0.3762013439245141,-0.5228460372846662,-0.6062780077698873
298,7.447782516479492,0.6653,-0.0823,0.1034,-9.612,-0.218,1.737,0.001197,-0.000323,-0.007869,-0.4330616274428568,0.4063951267604247,-0.49064670815621525,-0.6376256233538551
299,7.466350317001343,0.6635,-0.0799,0.1031,-9.632,-0.224,1.767,-0.004801,-0.002801,-0.005976,-0.4028043545074115,0.4318014311873226,-0.45992685936576755,-0.6631466354045603
300,7.491849422454834,0.6659,-0.0791,0.1015,-9.629,-0.181,1.76,0.005104,-0.001541,-0.005434,-0.37534040576310035,0.4505079023633698,-0.43301408601871794,-0.6845882054338375
301,7.5176215171813965,0.6653,-0.0818,0.1012,-9.62,-0.215,1.763,-0.005192,0.002269,-0.00722,-0.3443533429376197,0.4717413905828721,-0.4022103717295219,-0.7050586163517357
302,7.5424511432647705,0.6645,-0.0815,0.1026,-9.638,-0.218,1.787,-0.010127,0.00193,-0.009187,-0.29677575806190626,0.5013820539760404,-0.3523461471341367,-0.7323881334219425
303,7.570218086242676,0.664,-0.082,0.1031,-9.628,-0.158,1.684,-0.005452,0.001086,-0.008645,-0.24579286887302898,0.5266394995067102,-0.29954328203805736,-0.7566442528403666
304,7.588385343551636,0.6658,-0.0818,0.1018,-9.651,-0.185,1.792,0.021099,0.001131,-0.00894,-0.2036646839518169,0.5428538896174074,-0.2591386048713984,-0.7724490497782772
305,7.6145875453948975,0.6645,-0.0818,0.1036,-9.616,-0.201,1.748,0.005924,0.001433,-0.005178,-0.16875154321588887,0.5536282919532498,-0.22703359419120347,-0.7832460520933425
306,7.6404078006744385,0.6643,-0.081,0.1036,-9.637,-0.156,1.791,-0.001093,0.000712,-0.001652,-0.14950175210748096,0.5594513425353596,-0.2073833199396858,-0.7884513809125906
307,7.674948453903198,0.6645,-0.0804,0.1036,-9.634,-0.172,1.734,0.007956,-0.000445,6.6e-05,-0.14943813348214102,0.5594640308759495,-0.20812084528802902,-0.7882600815555768
308,7.688549518585205,0.6663,-0.0831,0.101,-9.628,-0.211,1.747,0.009388,0.003261,0.002906,-0.16479575352739378,0.5564509231051918,-0.22443153989993342,-0.7828379230037741
309,7.721844673156738,0.664,-0.0818,0.1028,-9.644,-0.19,1.787,0.002904,0.003872,0.001831,-0.17973880539402196,0.5531854647412632,-0.2396265173337835,-0.7773409391155237
310,7.739852666854858,0.6658,-0.0815,0.1023,-9.608,-0.196,1.756,-0.004969,0.001232,0.002274,-0.19355261785894684,0.5495537909712276,-0.2524115238752549,-0.7725389553699363
311,7.7744574546813965,0.6645,-0.081,0.1031,-9.627,-0.171,1.727,-0.002878,0.000672,0.003053,-0.20809906229230646,0.5449256870772375,-0.26622395141182126,-0.7673822929486579
312,7.79213547706604,0.6655,-0.082,0.1026,-9.616,-0.144,1.72,-0.0012,0.00344,0.00215,-0.22367368266648074,0.5404132652904294,-0.2808283954872684,-0.760959262160989
313,7.81531548500061,0.664,-0.081,0.102,-9.62,-0.189,1.707,0.010285,0.005276,-0.000823,-0.22730077658887135,0.5406775126216893,-0.28451719774742246,-0.7583219293237361
314,7.838545799255371,0.6653,-0.0815,0.1026,-9.639,-0.236,1.714,0.023624,0.002245,-0.005209,-0.21362581511212628,0.5470297990518862,-0.27353748012288237,-0.7617740196639396
315,7.864207744598389,0.6635,-0.0807,0.1041,-9.658,-0.213,1.745,0.019793,0.000887,-0.005976,-0.19167165980550488,0.5542748277271121,-0.25531699559540283,-0.7686706849721927
316,7.8894078731536865,0.665,-0.0818,0.1039,-9.628,-0.162,1.722,0.007467,0.000574,-0.005564,-0.16385218663464213,0.5626193186987049,-0.2298436373908991,-0.7770353051908082
317,7.91663670539856,0.6635,-0.0812,0.1017,-9.617,-0.162,1.697,0.007384,0.001227,-0.003254,-0.1495758877426128,0.5658212219937424,-0.21651720564104823,-0.7814049514873255
318,7.956390380859375,0.6653,-0.0815,0.1039,-9.634,-0.151,1.701,0.022642,-0.002878,-0.00046,-0.15945457202291258,0.5626564406860906,-0.22811497674523012,-0.7784314527304077
319,7.965343713760376,0.664,-0.0802,0.1044,-9.603,-0.176,1.697,0.023532,-0.002586,0.003352,-0.19150844933267563,0.5503768235153573,-0.26439636991129317,-0.7684428576993021
320,7.989812850952148,0.6653,-0.0818,0.1044,-9.63,-0.182,1.711,0.013752,0.000168,0.004951,-0.22680814025339074,0.5361505367278833,-0.30210988357056984,-0.7548710404633215
321,8.015405893325806,0.6651,-0.0804,0.1042,-9.638,-0.22,1.658,0.016004,-0.004491,0.00174,-0.25152963666171824,0.5240060250847344,-0.3297157032354535,-0.7439341923824118
322,8.050518989562988,0.6655,-0.0829,0.1028,-9.629,-0.249,1.694,0.021554,-0.002207,-0.000938,-0.2604766450902271,0.5169511805991608,-0.3431902983897019,-0.7396849419387022
323,8.064301252365112,0.6638,-0.081,0.1025,-9.613,-0.224,1.643,0.007844,-0.000196,-0.003694,-0.2581422693671511,0.5170866312133156,-0.3429074422975635,-0.7405393106401474
324,8.089822769165039,0.6648,-0.0812,0.102,-9.63,-0.195,1.676,0.0003,-0.0019,-0.006893,-0.2293276369677207,0.5300541088339309,-0.31453954542875995,-0.7533368111227127
325,8.114027738571167,0.665,-0.0815,0.102,-9.638,-0.193,1.633,0.005573,-0.001857,-0.00656,-0.20644384995395434,0.5370894915602809,-0.2939164958327655,-0.7632358143779001
326,8.144266843795776,0.6653,-0.0804,0.1031,-9.627,-0.211,1.693,0.020736,-0.002791,-0.008029,-0.1817813839214512,0.5439372198191463,-0.27257124133212574,-0.7725236227803546
327,8.16382384300232,0.663,-0.0815,0.1047,-9.637,-0.226,1.729,0.009634,-0.005387,-0.005705,-0.15806606282828894,0.548800727875497,-0.25367720272967254,-0.7806924859895455
328,8.188793897628784,0.6664,-0.0796,0.1013,-9.627,-0.196,1.73,0.008402,-0.005824,-0.005783,-0.13139220962773165,0.5531612209946971,-0.22995370185018787,-0.7898544459849502
329,8.21408462524414,0.6643,-0.0818,0.1039,-9.636,-0.242,1.71,0.011745,-0.007428,-0.005666,-0.11021508936913704,0.5549084373180712,-0.2131179238361,-0.7965613666305691
330,8.262096405029297,0.6656,-0.0807,0.1036,-9.615,-0.213,1.662,0.005773,-0.004398,-0.004832,-0.08969806661037702,0.5563134910403621,-0.1961334054497442,-0.8024968808659206
331,8.26408839225769,0.6643,-0.0793,0.102,-9.614,-0.244,1.727,0.004433,-0.005311,-0.007678,-0.060736402545723656,0.5597829490867977,-0.16904751099431514,-0.8089357689854729
332,8.302045822143555,0.6661,-0.0796,0.1028,-9.624,-0.269,1.673,-0.002103,-0.00887,-0.012555,-0.0035459721572692338,0.5629694024437499,-0.11462227318711762,-0.8184831167977777
333,8.321738243103027,0.6651,-0.0796,0.1031,-9.637,-0.232,1.747,-0.009401,-0.009313,-0.017118,0.08576615172339586,0.558932753380802,-0.0287897429619368,-0.8242630011816015
334,8.340955257415771,0.6656,-0.0802,0.102,-9.642,-0.22,1.697,-0.000907,-0.003888,-0.014802,0.17574657314019998,0.5454203136652177,0.059127997988868225,-0.8173944600525749
335,8.39114761352539,0.6646,-0.078,0.1023,-9.673,-0.292,1.71,0.000762,0.002447,-0.014173,0.24907959512765807,0.5294366363041021,0.13273541666030636,-0.8000234450277409
336,8.392665386199951,0.6653,-0.0804,0.1028,-9.598,-0.308,1.762,0.025254,0.003529,-0.011038,0.30639470680894276,0.513424691456591,0.18781738040245227,-0.7792573396901225
337,8.415095090866089,0.6643,-0.0785,0.1028,-9.623,-0.315,1.835,-0.007322,-0.00398,-0.004139,0.34485687333404513,0.4977951127106344,0.22534986084371642,-0.7632111129257689
338,8.440025329589844,0.6654,-0.0788,0.1023,-9.584,-0.253,1.798,-0.044239,-0.007691,0.002826,0.3570667809156615,0.4869488375608993,0.24085761724900623,-0.7598498218580743
339,8.48200273513794,0.6643,-0.0783,0.1031,-9.607,-0.247,1.726,-0.068482,-0.001672,0.007825,0.35104743823585743,0.48369153116515223,0.24674840111918164,-0.7628390559825052
340,8.48904800415039,0.6656,-0.0796,0.1039,-9.633,-0.206,1.732,-0.035826,-0.003164,0.004914,0.3389104639306232,0.48466548865868997,0.24507462902847674,-0.7682301007823875
341,8.517173767089844,0.665,-0.081,0.1018,-9.639,-0.202,1.752,-0.019543,-0.003283,0.002549,0.3338864415772212,0.48442275469341395,0.2443294714471919,-0.770816157231075
342,8.53979206085205,0.6656,-0.0802,0.1036,-9.582,-0.221,1.77,-0.012557,0.00095,0.000741,0.3303944290328005,0.48461283167979186,0.24336224826076608,-0.7725054956159526
343,8.56538462638855,0.6656,-0.0788,0.1023,-9.633,-0.195,1.785,-0.031064,-0.006832,0.001134,0.33407563853607036,0.47951680515800255,0.2513414795885277,-0.7715468630913022
344,8.589898824691772,0.6664,-0.0807,0.1044,-9.659,-0.178,1.694,-0.022957,-0.005548,0.002821,0.3298984719536904,0.47725282461040974,0.2513767593731891,-0.7747299300085414
345,8.616409301757812,0.6653,-0.0826,0.1026,-9.645,-0.181,1.687,-0.024419,-0.003742,-0.001721,0.3363795230462145,0.4706530790558319,0.2627193307045936,-0.7722130851808952
346,8.65851902961731,0.6656,-0.0807,0.1023,-9.598,-0.179,1.772,-0.010675,-0.005698,-0.003429,0.35225187157076565,0.4587375005737038,0.2822017582010802,-0.7654023074243393
347,8.666074514389038,0.664,-0.0799,0.1015,-9.611,-0.163,1.696,-0.002091,-0.009686,-0.005818,0.37253957934398596,0.44255924642309624,0.30222300256651013,-0.7576389852345974
348,8.689483642578125,0.6658,-0.081,0.0996,-9.633,-0.187,1.751,0.004882,-0.016089,-0.007813,0.3975715917823882,0.42079141894059374,0.3235898285984606,-0.748439064975365
349,8.716443300247192,0.6645,-0.081,0.1023,-9.636,-0.154,1.754,0.007633,-0.020771,-0.012617,0.43643886989277925,0.38378007853066043,0.35603545305628564,-0.7317600155356394
350,8.739327430725098,0.6659,-0.0796,0.1031,-9.649,-0.14,1.766,0.011472,-0.021072,-0.012892,0.47492117180770216,0.3432656541527471,0.38791078361780773,-0.7114378364979641
351,8.764524459838867,0.6651,-0.0785,0.1018,-9.601,-0.157,1.778,0.026935,-0.019194,-0.012599,0.5090404846349406,0.3050912007960903,0.4115291409202221,-0.6916942318487908
352,8.788322687149048,0.6669,-0.0777,0.1013,-9.609,-0.193,1.755,0.032853,-0.02003,-0.013082,0.5425300924668028,0.2671396931353569,0.43109592724072227,-0.669666920667261
353,8.823945999145508,0.6651,-0.078,0.1036,-9.605,-0.263,1.721,0.029757,-0.022198,-0.016983,0.5790979322137573,0.22040511739211424,0.45283717365199283,-0.6410972338826567
354,8.847728729248047,0.6667,-0.0785,0.1007,-9.601,-0.249,1.711,0.02844,-0.021736,-0.02345,0.6319988444863162,0.14418536555487943,0.49033561141642823,-0.5825453021908636
355,8.865911960601807,0.6651,-0.0783,0.1007,-9.628,-0.233,1.79,0.030462,-0.020747,-0.02849,0.6844123689029836,0.04570620935359784,0.5268290249471066,-0.5019380740613449
356,8.888296127319336,0.6669,-0.0777,0.1018,-9.625,-0.185,1.776,0.020218,-0.019071,-0.022522,0.7199938366292139,-0.050964651091944285,0.5471995770417557,-0.4237736452876051
357,8.921486854553223,0.6661,-0.0791,0.0983,-9.627,-0.163,1.728,0.014034,-0.00687,-0.015684,0.7373158852459796,-0.11966274024531431,0.5556237944583663,-0.36514149722074474
358,8.944271564483643,0.6659,-0.0791,0.0981,-9.771,-0.376,1.71,-0.018051,0.00186,-0.009545,0.7448295433706202,-0.17554330462280163,0.5643500297016484,-0.30971364758461667
359,8.965244770050049,0.6665,-0.0758,0.0997,-9.652,-0.452,1.756,-0.004635,0.008778,-0.006586,0.7445892835923046,-0.2219061770124452,0.5729294320969536,-0.26095270299478046
360,8.990440130233765,0.6667,-0.078,0.1018,-9.575,-0.562,1.906,0.001718,-0.001235,-0.007121,0.7461889974356389,-0.25053348220576555,0.5729974406317566,-0.22827371164745572
361,9.025398254394531,0.6654,-0.078,0.1018,-9.517,-0.438,1.861,-0.029731,-0.007979,-0.002249,0.7413443172669038,-0.2802715721141508,0.5734493776540379,-0.20739397384911443
362,9.038988590240479,0.6669,-0.0788,0.1021,-9.55,-0.288,1.824,-0.041103,-0.004696,0.008359,0.7345499372428222,-0.27393442882089725,0.5796894656421165,-0.2221630973557313
363,9.065893650054932,0.6656,-0.0772,0.1013,-9.662,-0.344,1.727,-0.016726,-0.009743,0.001681,0.7287344082299885,-0.2627181444487454,0.5837641773954303,-0.24319688326319713
364,9.091370105743408,0.6667,-0.0785,0.1005,-9.589,-0.363,1.712,-0.000825,-0.005036,-0.003364,0.7274227717195071,-0.2680846648995867,0.5826183281941631,-0.24401353913630403
365,9.128113031387329,0.6662,-0.0764,0.0989,-9.608,-0.299,1.872,-0.010038,-0.004519,-0.005365,0.7238157267379789,-0.29416201562687444,0.5826776957654554,-0.22371009174055015
366,9.13849949836731,0.668,-0.0783,0.0999,-9.629,-0.257,1.898,-0.0082,-0.003502,-0.005347,0.7202281942471932,-0.3239715455379337,0.5800697226238974,-0.19958181978382886
367,9.166139125823975,0.6662,-0.0769,0.0994,-9.656,-0.246,1.795,-0.024544,0.002356,-0.003618,0.7124568476277242,-0.35769941967698843,0.5799043676859208,-0.16783113468574215
368,9.196874380111694,0.6669,-0.0777,0.0994,-9.586,-0.145,1.802,-0.015401,0.003044,0.003214,0.7062056655528774,-0.3748875664490696,0.5819290204097938,-0.14863204791635484
369,9.2198007106781,0.6667,-0.0769,0.0997,-9.598,-0.206,1.79,0.000963,0.008357,0.006673,0.7076536256167402,-0.3589598552506409,0.5873280275280429,-0.15943637147758918
370,9.25106954574585,0.6672,-0.0775,0.1002,-9.621,-0.339,1.808,0.012461,0.004595,-0.000928,0.7111379958056533,-0.34427456124492556,0.5895850012836622,-0.1677715818083519
371,9.264475107192993,0.6651,-0.0772,0.1023,-9.642,-0.325,1.787,-0.007446,-0.003449,-0.00835,0.7066261552643951,-0.37209949274568815,0.5848755251604023,-0.14192274047172368
372,9.291840076446533,0.6675,-0.0767,0.1015,-9.623,-0.243,1.806,-0.016395,-0.004393,-0.013379,0.6880391280590217,-0.44108572143055275,0.5706538324445847,-0.07999842577312283
373,9.314039707183838,0.6664,-0.0788,0.0989,-9.623,-0.226,1.816,-0.015918,5.4e-05,-0.012718,0.6594433866951233,-0.514734996040411,0.5477657960981903,-0.011616205071362518
374,9.340481281280518,0.6664,-0.0772,0.1021,-9.599,-0.17,1.785,0.002347,0.004419,-0.011391,0.630353768500088,-0.5729168787006919,0.5218362763518205,0.04590509035891921
375,9.365001440048218,0.6664,-0.0772,0.1005,-9.605,-0.219,1.864,0.009955,0.00195,-0.008007,0.60656076216195,-0.6152427024224871,0.4955446770639443,0.08941997514526748
376,9.390433549880981,0.6675,-0.0777,0.0997,-9.6,-0.235,1.828,0.002958,-0.002558,-0.009242,0.5849480458805255,-0.6489175926426414,0.47127910558327246,0.12098655388126514
377,9.425198316574097,0.6667,-0.0761,0.1015,-9.622,-0.236,1.803,0.00484,-0.00364,-0.010627,0.5537274792143287,-0.6904228089124768,0.43828805604867394,0.15686237159186756
378,9.448344469070435,0.6685,-0.0769,0.1008,-9.635,-0.249,1.793,0.01364,-0.007674,-0.013098,0.5157984466994638,-0.7346418105210594,0.3953322770467236,0.19484805193230198
379,9.46529769897461,0.667,-0.0766,0.0994,-9.629,-0.271,1.826,0.03082,-0.006914,-0.015273,0.4785999525321934,-0.7739077545728301,0.3468429527094099,0.22739577613500278
380,9.490853309631348,0.668,-0.0766,0.1002,-9.618,-0.277,1.821,0.024686,-0.010315,-0.016693,0.4372700429400876,-0.8108632109342779,0.2926477464249119,0.2562285292721067
381,9.530132293701172,0.668,-0.0772,0.0994,-9.588,-0.259,1.834,0.015782,-0.0111,-0.015412,0.39312270858465714,-0.8433426507092053,0.23749183740485563,0.2789719280786151
382,9.543681144714355,0.6683,-0.0753,0.1018,-9.616,-0.261,1.801,0.018274,-0.013869,-0.015963,0.3530141793468703,-0.8689821415739711,0.18652648920662995,0.29233353490460046
383,9.566150665283203,0.6672,-0.075,0.0999,-9.624,-0.255,1.808,0.030982,-0.012742,-0.016668,0.3141806154391121,-0.8896689935387989,0.13338907828284022,0.30329354858423174
384,9.589788436889648,0.6688,-0.0742,0.1002,-9.613,-0.299,1.801,0.027411,-0.011706,-0.017879,0.2713078108972643,-0.9074056747020207,0.07404447667467179,0.31228901475825027
385,9.62402629852295,0.667,-0.0758,0.0994,-9.589,-0.272,1.827,0.02421,-0.014386,-0.019631,0.22186749986192444,-0.922273264683297,0.00919733954319056,0.3163893909421732
386,9.639901638031006,0.6683,-0.0758,0.0992,-9.619,-0.261,1.83,0.017863,-0.02049,-0.017159,0.17377273047941577,-0.9327287914889079,-0.0534364284862361,0.3113913739653124
387,9.664695501327515,0.6675,-0.0737,0.0986,-9.602,-0.239,1.844,0.013886,-0.023304,-0.014497,0.14330683513274853,-0.9381315062776135,-0.09820562450111364,0.29954646258949114
388,9.690012454986572,0.6685,-0.075,0.1,-9.624,-0.254,1.828,0.017723,-0.026091,-0.008415,0.1334313382324303,-0.941760013626148,-0.12372764437607367,0.2827996193942416
389,9.717737197875977,0.668,-0.0742,0.0986,-9.611,-0.341,1.786,0.020926,-0.023466,-0.00807,0.14060825256490905,-0.9435240659973742,-0.1352493858009564,0.26776717467772215
390,9.75993037223816,0.6683,-0.075,0.1002,-9.62,-0.377,1.744,0.015566,-0.024584,-0.001617,0.1566684531057991,-0.9450176631178262,-0.13397804548880382,0.2538631432952781
391,9.764447927474976,0.6675,-0.074,0.0997,-9.607,-0.373,1.671,0.016329,-0.032189,0.009085,0.21268596331255749,-0.9440359136215579,-0.09336965873774206,0.23418578443132987
392,9.78996753692627,0.6693,-0.0742,0.0986,-9.548,-0.481,1.76,0.035279,-0.029889,0.022666,0.331704129774006,-0.9223949085083344,0.0006807163686274043,0.19788769459973105
393,9.81580662727356,0.6693,-0.0748,0.0984,-9.564,-0.662,1.769,-0.018096,-0.021134,0.038833,0.4795835977675641,-0.857881927567533,0.1401887817407882,0.11993863672464788
394,9.839725017547607,0.6698,-0.0756,0.0968,-9.553,-0.551,1.753,-0.1382,-0.026503,0.060348,0.6025125042304992,-0.7341910754959571,0.3109203679409167,-0.03564648239963955
395,9.866515636444092,0.6688,-0.0769,0.0984,-9.512,-0.388,1.755,-0.166037,-0.045862,0.061615,0.6494164582855284,-0.5548487190622927,0.44742456185995527,-0.2649762708380518
396,9.889300346374512,0.6692,-0.0791,0.0978,-9.5,-0.336,1.603,-0.1639,-0.044344,0.05387,0.6059900418916405,-0.38384587669977777,0.49927984205228926,-0.485960956650828
397,9.914538860321045,0.67,-0.0804,0.097,-9.602,-0.456,1.547,-0.133579,-0.001383,0.042213,0.5231278002633782,-0.25217859629243244,0.5133389396021667,-0.6318436462066391
398,9.939855813980103,0.6694,-0.082,0.0984,-9.702,-0.599,1.781,-0.074617,0.024886,0.022697,0.46852931530535263,-0.1738144078078638,0.5217448642865964,-0.6914124159490197
399,9.965035915374756,0.6684,-0.0815,0.0965,-9.65,-0.61,1.858,-0.065475,0.027148,0.0158,0.44612049785698715,-0.13483197819456189,0.5365298972145824,-0.7035143981773825
400,9.996399641036987,0.6702,-0.0818,0.0997,-9.557,-0.584,1.861,-0.0627,0.026653,0.017587,0.4250443102191132,-0.09820327509596477,0.5503246270385178,-0.7119243330479026
401,10.013957023620605,0.6689,-0.0823,0.0989,-9.654,-0.714,1.792,-0.178906,0.001761,0.0194,0.3870076882196818,-0.06260313436406287,0.5740505013705323,-0.718868498894543
402,10.039596557617188,0.6686,-0.0828,0.0989,-9.516,-0.335,1.556,-0.261376,-0.002228,0.033154,0.3145342063054542,-0.03347176908197086,0.635244443365138,-0.7045653773157159
403,10.067707538604736,0.6678,-0.0845,0.0994,-9.829,-0.06,1.593,-0.245526,0.002708,0.042379,0.21571490431599388,0.05499164109981275,0.662796012705204,-0.7149436656179102
404,10.088557004928589,0.6696,-0.0877,0.0978,-9.569,-0.121,1.792,-0.142497,-0.008723,0.04407,0.09883612364650235,0.15900074766819514,0.6378602259186218,-0.7470505438687084
405,10.115635871887207,0.6686,-0.0869,0.0989,-9.48,-0.309,1.918,-0.067263,-0.026,0.02353,-0.03062127504278188,0.2414442969716007,0.5467425286847527,-0.8011489226742093
406,10.154104948043823,0.6698,-0.088,0.101,-9.471,-0.235,2.097,-0.063325,-0.058638,-0.001822,-0.09338946682086846,0.24591747284119048,0.5298077761829743,-0.8062919597356578
407,10.165271520614624,0.6678,-0.0877,0.101,-9.55,-0.32,1.829,-0.09687,-0.05038,-0.016307,-0.10294823594430882,0.22006945801479255,0.5917705075239397,-0.76862133771441
408,10.188732624053955,0.6693,-0.0869,0.1005,-9.719,0.004,2.036,-0.06779,-0.025381,-0.021427,-0.04585432402047232,0.1722707986843443,0.6949958375274119,-0.6965636645051584
409,10.216256380081177,0.6693,-0.0866,0.1007,-9.589,0.172,2.305,-0.078226,-0.060933,-0.01247,-0.03470701782488942,0.12938799675921053,0.7570206352998763,-0.6395106933730765
410,10.238653659820557,0.6696,-0.0872,0.0991,-9.542,0.246,2.347,-0.034621,-0.072146,0.009011,-0.09880250575730645,0.12836899398731053,0.7624186506549762,-0.6264800614322925
411,10.266550779342651,0.6691,-0.0869,0.1007,-9.744,-0.003,2.143,-0.033878,-0.046395,0.032442,-0.20845588570164256,0.16649638096854455,0.695450627980097,-0.6672132514292637
412,10.291239976882935,0.6711,-0.0874,0.0997,-9.612,-0.043,2.217,-0.048747,-0.028814,0.045658,-0.3626228967734805,0.2289308390656102,0.5656241100979511,-0.7043895738412277
413,10.316841125488281,0.6696,-0.0885,0.1005,-9.688,-0.149,2.391,-0.158284,-0.055842,0.046185,-0.52377049390886,0.25603788980811837,0.4638411865903324,-0.6670535378180279
414,10.34175181388855,0.6696,-0.0888,0.0983,-9.522,-0.155,2.268,-0.282329,-0.086635,0.057841,-0.6841190206105665,0.2882852869744105,0.4000655004009947,-0.537420091122227
415,10.372854948043823,0.6679,-0.0912,0.0964,-9.511,-0.009,1.933,-0.275129,-0.0621,0.055242,-0.8071130191493325,0.32862556025235956,0.34327734103755997,-0.3503348149965325
416,10.402124166488647,0.6708,-0.0928,0.0957,-9.618,0.104,2.198,-0.188876,-0.039124,0.035759,-0.8595905870551297,0.3622312278161278,0.3012098844192625,-0.1979019094631795
417,10.414549350738525,0.6695,-0.0925,0.0943,-9.401,0.183,2.102,-0.220314,-0.030585,0.035881,-0.8723358039156901,0.39905301913198105,0.2720481723704958,-0.07600476983907323
418,10.441155433654785,0.671,-0.0925,0.0938,-9.32,0.358,2.306,-0.208742,-0.017091,0.056407,-0.8721254982371013,0.4348391065890879,0.2114623713667789,0.0748046268718061
419,10.465539932250977,0.6694,-0.0939,0.0938,-9.432,0.025,2.216,-0.098955,-0.025808,0.060784,-0.8818735864898173,0.37219028401588683,0.15025172706242734,0.24738186766721237
420,10.489819049835205,0.6712,-0.0966,0.0925,-9.601,-0.169,1.986,-0.001883,-0.02875,0.051206,-0.870249463732831,0.2511920215193285,0.1589458536923372,0.3928163117689583
421,10.518824577331543,0.6697,-0.0963,0.0917,-9.709,-0.639,1.875,-0.046151,0.001185,0.039746,-0.8303190448750221,0.1681888910276481,0.18794026315266887,0.49695194751487454
422,10.54132080078125,0.6707,-0.0958,0.0941,-9.642,-0.809,1.86,-0.122219,0.000221,0.032654,-0.7763014128148047,0.14412638677296563,0.19741182331239754,0.5810441232075084
423,10.577798128128052,0.6689,-0.0958,0.0914,-9.535,-0.55,1.962,-0.264085,-0.00041,0.044529,-0.6928806064691493,0.1774451812204768,0.1608571667345809,0.6801136998698816
424,10.594156980514526,0.6722,-0.0966,0.0909,-9.454,-0.155,2.014,-0.22644,0.00451,0.04826,-0.5723875339055264,0.20840509152463607,0.11194406739370569,0.7851167777034901
425,10.61539077758789,0.6693,-0.0987,0.0927,-9.447,-0.272,2.125,-0.06589,0.028406,0.025106,-0.48694767381347226,0.19427958941563583,0.09977972971341749,0.8456839892314726
426,10.640379428863525,0.6693,-0.099,0.0901,-9.43,-0.349,2.023,0.001502,0.024447,-0.00461,-0.48602990556223996,0.17435194077310767,0.09710912060269271,0.8508502514212373
427,10.673028707504272,0.6683,-0.0977,0.0914,-9.562,-0.386,1.9,-0.028125,0.024515,-0.032578,-0.5414438520797105,0.2073318160932603,0.02624554558800754,0.8143483556914344
428,10.694457054138184,0.6712,-0.0976,0.0904,-9.638,-0.423,1.948,0.037247,0.017066,-0.074561,-0.653833314022783,0.3259656301417403,-0.07075805842878276,0.6791477767081858
429,10.716942310333252,0.6697,-0.096,0.0906,-9.641,-0.538,1.887,0.059508,0.026465,-0.125653,-0.7088905246900357,0.5882984226671288,-0.0767916249074406,0.38142133689153945
430,10.740997314453125,0.6702,-0.0942,0.0927,-9.545,-0.547,1.811,0.133159,0.038626,-0.190174,-0.4497794948447432,0.8505689110443138,0.2675018537007545,0.05170775424206579
431,10.771228790283203,0.6698,-0.0877,0.0912,-9.577,0.001,1.964,0.078582,0.036825,-0.228429,-0.013799254217176121,0.5440111000724831,0.7898483030267485,0.28284476623537225
432,10.798165321350098,0.6701,-0.0877,0.092,-9.516,0.737,2.188,0.033787,0.036853,-0.203061,-0.2609120161145628,0.017114413812647944,0.5885681570330025,0.7649964321574699
433,10.815394163131714,0.6694,-0.0839,0.0925,-9.41,0.579,2.222,0.115984,0.076977,-0.17101,-0.7603734103284704,0.07709476722990041,0.12952819753630188,0.6317524196821219
434,10.840929985046387,0.6704,-0.0845,0.0949,-9.495,0.33,2.223,0.175647,0.05199,-0.194726,-0.8560609116970684,0.4979840440351763,0.1134410663893366,0.07938974623467257
435,10.865495204925537,0.6693,-0.0783,0.0954,-9.485,0.283,2.12,0.112074,0.046248,-0.20645,-0.4028298568098642,0.6337440742152167,0.6352109079652786,-0.18056482841785298
436,10.890395879745483,0.6708,-0.0766,0.0963,-9.775,0.279,2.064,0.136466,0.05698,-0.213245,-0.12768200170288035,0.1050675440881709,0.9571342704044266,0.23780686709557392
437,10.91566276550293,0.6702,-0.0712,0.096,-9.66,-0.278,2.069,0.194566,0.060878,-0.210739,-0.5512777360928389,-0.32690795735241907,0.5747746194577973,0.5087810746629315
438,10.947327613830566,0.6723,-0.0683,0.0966,-9.334,-0.729,2.13,0.100802,0.046676,-0.242206,-0.9829584492736612,-0.01971069860347951,0.17311725624435914,0.05860538330654473
439,10.973497867584229,0.6703,-0.0651,0.0984,-9.615,-0.591,1.842,-0.039309,0.055661,-0.302197,-0.49603235678614255,0.37760978661895134,0.6895829883239623,-0.36856214168708235
440,10.989381790161133,0.6725,-0.0599,0.0995,-9.778,-0.473,1.728,0.006171,0.062202,-0.343536,-0.4009874582993076,-0.28985146625847724,0.8213379331181747,0.2838999567024215
441,11.015512943267822,0.6715,-0.0559,0.1001,-9.604,-0.66,2.018,0.079486,0.089164,-0.339046,-0.9493942557825672,-0.016799358194448367,0.3041401585623071,-0.07659694903202569
442,11.042383432388306,0.6722,-0.051,0.1025,-9.692,-0.58,2.126,0.124223,0.113596,-0.312294,-0.42910734827225777,0.11551072785516481,0.834035343813586,-0.3269697244071301
443,11.063846349716187,0.6723,-0.0454,0.1001,-9.205,-0.8,2.349,0.175885,0.06024,-0.247621,-0.4467841551493377,-0.41871755604710975,0.7905648841195453,0.008166453482267466
444,11.09105896949768,0.6731,-0.0424,0.1038,-9.509,-1.209,2.566,-0.276646,-0.034651,-0.269114,-0.8026897657615698,-0.3387104125029242,0.4887416638469555,-0.04578190061415749
445,11.114118337631226,0.6721,-0.0413,0.1012,-10.074,-0.641,2.307,-0.655264,-0.006113,-0.282195,-0.7524091883344488,0.16542007997227848,0.6347278447785024,-0.06030898369810472
446,11.143790006637573,0.6743,-0.0386,0.1009,-10.452,0.834,2.339,-0.594469,0.044156,-0.220635,-0.5433238054691882,0.3542940725554542,0.6826629510089371,0.33652079858802153
447,11.164653062820435,0.6727,-0.0397,0.102,-10.633,1.255,2.507,-0.433907,0.02529,-0.067561,-0.4409519709029432,0.4936133378743059,0.4872295040536853,0.5696618667323591
448,11.191812992095947,0.6731,-0.0427,0.1017,-11.265,0.471,2.39,-0.40539,-0.000444,-0.017111,-0.2840673093410879,0.6030738465160126,0.28920699978003944,0.6869985521748383
449,11.227895259857178,0.675,-0.0416,0.102,-11.66,0.358,2.011,-0.402704,0.016839,0.037362,-0.09658276198438084,0.6531235665063131,0.07675780162703547,0.7471342696269037
450,11.240076303482056,0.6757,-0.0459,0.1036,-11.732,0.177,1.877,-0.334914,0.039699,0.143228,0.09273201001321656,0.604142793688768,-0.10901628568636768,0.7839181772404488
451,11.272873640060425,0.6748,-0.0494,0.1041,-11.947,-0.267,1.761,-0.294386,0.098816,0.265779,0.34642838560639844,0.474475519679664,-0.16242226726986894,0.7927669026679738
452,11.289141416549683,0.6752,-0.0564,0.1046,-11.395,-0.464,1.595,-0.316151,0.172731,0.389923,0.6919309612849555,0.47311255157475596,-0.02087132817785045,0.5449407729449081
453,11.316347360610962,0.6745,-0.0645,0.1075,-10.451,-0.001,1.144,-0.409758,0.221336,0.572035,0.38553162160533405,0.8202238709794656,-0.35572055211291587,-0.22816892650469486
454,11.35090947151184,0.674,-0.0761,0.1117,-10.142,0.47,1.193,-0.39489,0.303904,0.771709,-0.05415959247044799,-0.5602496538522835,-0.43620563271344504,0.7020767122550744
455,11.365120887756348,0.67,-0.0923,0.1164,-10.338,0.941,1.298,-0.589208,0.393294,1.036881,-0.7855304264147851,0.33680724917434235,-0.40482863000661573,-0.324987086523734
456,11.38895583152771,0.6686,-0.112,0.1211,-10.549,2.945,0.221,-0.869989,0.611537,1.486637,-0.5084757916342216,-0.02391468796087562,0.4477045311616752,0.735146998768947
457,11.431827545166016,0.6605,-0.1395,0.1273,-10.209,3.443,1.702,-0.397092,0.468621,1.939909,-0.18513047826241463,0.7063442908243447,0.3492549813223568,0.5872183638645028
458,11.438389539718628,0.6549,-0.1689,0.1335,-10.439,3.934,2.332,-0.001435,0.08604,2.118454,-0.46975176602582314,-0.6003110222883904,0.4147543381228028,-0.49692936504397067
459,11.46453070640564,0.6457,-0.2002,0.133,-12.099,4.352,2.086,0.011604,-0.068219,2.267831,-0.8252449571282808,-0.2047501234412435,-0.12184068194946494,-0.5120576099495316
460,11.490230321884155,0.636,-0.2282,0.1347,-12.167,2.43,1.257,0.911753,0.034869,2.494186,-0.26551923269777544,-0.15003603495796425,-0.566309003484607,0.7656910851341737
461,11.534921646118164,0.6229,-0.2562,0.1347,-11.663,2.034,1.03,0.731317,-0.095425,2.718155,-0.4195267011466499,0.6380287288137795,-0.39827359649548116,0.5082271446586031
462,11.538071870803833,0.6083,-0.2875,0.1395,-12.334,1.96,1.633,0.822256,-0.248278,2.620704,0.32242634439156165,-0.027284586726489778,-0.19412015001160476,-0.9260746034358845
463,11.570483446121216,0.5872,-0.315,0.1395,-11.71,1.848,2.054,0.862338,-0.409645,2.429668,0.7419923316192685,0.2731632181676487,0.17687247118261842,-0.5861274306806062
464,11.591279029846191,0.5721,-0.3385,0.1424,-10.352,2.428,1.123,0.557022,-0.431665,2.273533,-0.760198572415037,0.2628987005975459,0.5625645857820809,-0.19105886670368744
465,11.619197607040405,0.5553,-0.3587,0.1395,-9.463,3.275,0.57,0.409181,-0.390405,2.193259,0.4081632275139367,-0.3094459708177417,0.8341852247953042,0.2044039666525076
466,11.63950777053833,0.5386,-0.3773,0.1396,-8.618,3.039,1.552,0.628593,-0.435201,2.129622,0.7603723924617434,0.45386685206151395,-0.3405649981350656,0.3159971319917936
467,11.665480852127075,0.5156,-0.3951,0.139,-7.876,1.958,1.438,0.534633,-0.496993,2.032003,-0.3849905809809475,-0.20293513745802055,-0.6343511945786721,0.6389038616861372
468,11.691291093826294,0.5007,-0.411,0.1401,-7.393,3.338,0.527,0.471279,-0.472037,1.941041,-0.3104832173529377,-0.8653728764111546,-0.11515518274013632,-0.37612396945972354
469,11.723453760147095,0.4836,-0.4255,0.141,-6.849,2.997,1.013,0.414263,-0.48832,1.803774,0.40676525852105433,0.013420978816851156,0.2554629727077795,-0.8769837919615172
470,11.740598440170288,0.4672,-0.4374,0.1402,-6.313,2.431,0.831,0.35489,-0.483694,1.596351,0.17087925539333446,0.811148488630777,0.5441350800340757,-0.12944274465776698
471,11.778133392333984,0.4504,-0.4466,0.1416,-5.988,2.656,0.615,0.170317,-0.518202,1.395011,-0.5324534173251303,0.4691518600662562,0.4062253887809457,0.5756481773487448
472,11.789833784103394,0.4398,-0.4573,0.1404,-5.659,3.045,1.243,0.194954,-0.526575,1.185405,-0.8585227059050662,-0.0009597346589500233,-0.32758540314343376,0.39449416472513477
473,11.815077781677246,0.4304,-0.4606,0.1363,-5.238,2.996,1.447,0.038373,-0.457922,0.864335,-0.5027623937136149,-0.05209204066590366,-0.8543365166506337,-0.1209359792777964
474,11.83992338180542,0.4245,-0.467,0.1365,-4.952,3.865,0.345,-0.006261,-0.319953,0.586947,0.04047730560508821,0.011117021232851604,-0.9188200391783234,-0.3924381928077396
475,11.864286422729492,0.419,-0.47,0.1309,-4.689,4.624,1.608,-0.114973,-0.350718,0.343075,0.43726781411303156,-0.02708206548259723,-0.7812608106112571,-0.4446290209523548
476,11.910569906234741,0.4187,-0.4724,0.1274,-4.749,5.301,1.795,-0.146102,-0.308356,0.111244,0.616319071954968,-0.10915990463940528,-0.674260694601287,-0.3919278409088498
477,11.914124011993408,0.4176,-0.4735,0.1229,-4.58,5.616,2.202,-0.223184,-0.321938,-0.123881,0.6922966357452274,-0.1524661643099267,-0.5934955649824342,-0.3811068763780572
478,11.95617151260376,0.4207,-0.4751,0.12,-4.85,7.009,0.64,-0.135729,-0.190686,-0.287768,0.7892366714635449,-0.1808454354536192,-0.43366296627353906,-0.3953945328094091
479,11.96681809425354,0.4236,-0.4724,0.1182,-5.052,7.612,1.891,-0.170989,-0.196907,-0.352739,0.8937029674109168,-0.25017700822594185,-0.22710324478977312,-0.2951789064313286
480,11.992128849029541,0.4268,-0.4713,0.1116,-5.41,10.304,1.808,-0.306592,-0.223721,-0.239849,0.8551267672174677,-0.5084073379000446,-0.08363558857374583,-0.05731735410428258
481,12.015252828598022,0.428,-0.474,0.107,-6.548,9.317,3.149,-0.010084,-0.422549,-0.115369,0.615383124957468,-0.7023439290494248,-0.3280844538441142,0.14274875127582415
482,12.039765119552612,0.4304,-0.4721,0.1076,-6.653,7.442,1.136,0.521799,-0.008002,-0.443181,0.5423280826265914,-0.6292231605591668,-0.3408652117275359,0.44019242660959096
483,12.065577745437622,0.4344,-0.4648,0.1103,-6.841,7.933,0.814,0.223987,-0.113751,-0.635321,0.24831894800041326,-0.6683028047036887,-0.17453463523057472,0.6791514723491966
484,12.09044861793518,0.4428,-0.4627,0.1128,-7.784,5.985,2.461,-0.119321,-0.157095,-0.999896,-0.39923320679011987,-0.6965538378216648,-0.08128905295892752,0.5906078965616932
485,12.12804889678955,0.4507,-0.4554,0.1028,-9.861,8.547,0.742,-0.553527,-0.257835,-1.10329,-0.9795891967080739,0.05667054285048831,0.17776579069406728,-0.07478488433349748
486,12.14342975616455,0.4615,-0.4497,0.099,-10.955,6.056,2.041,0.021296,-0.202225,-1.052333,-0.6835460966599217,-0.12085230764155291,0.7173561144283005,-0.059662874310812686
487,12.167256832122803,0.4726,-0.4378,0.1002,-9.516,4.273,2.473,0.181886,0.060946,-1.425246,-0.5253700857522652,-0.6810282171237348,0.30807265912514803,0.4065440654805886
488,12.189586877822876,0.4864,-0.4265,0.0977,-9.688,5.246,2.564,-0.341165,0.144887,-1.652764,-0.285650846355051,-0.20542919209861138,-0.8602993809181455,0.3689002794824239
489,12.227329015731812,0.4996,-0.4152,0.0987,-10.995,5.511,2.618,-0.400901,0.231355,-1.676008,0.7373178286253054,0.025559077687594273,-0.6715075633406551,0.06918631017275303
490,12.241998195648193,0.5126,-0.4031,0.097,-10.453,3.853,2.058,-0.265691,0.081077,-1.606305,0.1502684942258838,-0.6553554040877544,-0.3733018512661014,0.6391982492289565
491,12.281455278396606,0.5262,-0.3866,0.0929,-9.237,3.17,2.826,-0.26299,-0.04862,-1.62769,-0.9790779402799693,0.16389542514101535,-0.08495967847007226,-0.08559514886511185
492,12.292734622955322,0.5399,-0.3739,0.0915,-8.551,3.979,2.026,-0.144567,-0.063386,-1.616606,-0.7623117672184774,-0.04372211085556538,0.6294944222536848,0.1438955139470138
493,12.314879655838013,0.552,-0.3575,0.0952,-8.93,3.633,1.843,-0.053279,-0.027163,-1.537998,-0.6311855618594552,0.5403814707784215,-0.07273588939317666,-0.5516358789398106
494,12.339707374572754,0.5632,-0.3424,0.0945,-8.942,2.583,1.531,-0.147696,-0.011952,-1.470205,0.9665149910662938,0.052450062354513535,0.2510796048710392,0.007536247138482303
495,12.36712121963501,0.5742,-0.3254,0.0918,-9.197,2.609,1.296,-0.258509,0.082249,-1.395051,0.6425695829666169,-0.044116004358585925,-0.7559380016076089,0.11711467427712027
496,12.391506671905518,0.5836,-0.3125,0.094,-9.631,1.763,2.157,-0.462412,0.194938,-1.362793,0.6514524063964761,-0.5246544191794376,-0.3720068820261652,0.40244053270129027
497,12.421157360076904,0.5916,-0.302,0.0944,-9.186,2.824,2.4,-0.37336,0.24235,-1.359622,-0.6597539227792573,0.35992624193063116,-0.5721986025699732,-0.32827826757804807
498,12.449946641921997,0.5997,-0.2874,0.0972,-8.728,3.012,3.326,-0.285949,0.182297,-1.315538,-0.056698463465332916,0.22559746244559728,0.9264094862210248,0.29606846001976395
499,12.4637930393219,0.6073,-0.2707,0.0992,-8.173,2.394,2.73,-0.088156,0.078018,-1.270529,-0.5546464613713101,0.3449061609351256,0.6650344415645294,0.3621273734064184
500,12.489424705505371,0.6146,-0.2559,0.1028,-8.609,2.461,1.793,-0.072258,0.074623,-1.203341,-0.8255147003411805,0.5536735269699806,0.09264802721055862,-0.058201787835294436
501,12.527138233184814,0.6185,-0.2419,0.1015,-8.79,0.831,1.702,-0.234479,0.088478,-1.183653,-0.10851800984662155,-0.619940092918235,0.16129605877542202,0.7601853090891552
502,12.53896450996399,0.6241,-0.2262,0.1022,-8.372,1.566,1.892,-0.52742,0.09494,-1.093421,0.8388018656226437,-0.03345886586625693,0.47909051941542713,-0.25644533282782167
503,12.565853834152222,0.6285,-0.213,0.1015,-8.175,3.208,2.323,-0.596331,0.128246,-0.954257,0.11525187311038962,0.046858929057716686,-0.38772699773550684,-0.9133394887658809
504,12.590911626815796,0.6326,-0.2049,0.0992,-7.933,3.542,1.765,-0.556127,0.124936,-0.817579,-0.14991515453760385,-0.7587712058846076,-0.36333544812704555,-0.5194025950018961
505,12.628402471542358,0.6354,-0.1942,0.0997,-8.654,2.75,1.777,-0.292519,0.127105,-0.764723,0.03040617587850994,-0.755603044689016,0.09436584734849329,-0.6474832740537277
506,12.645774841308594,0.6387,-0.1858,0.0993,-8.314,2.105,2.054,-0.214655,0.146038,-0.719022,-0.15472288813179838,-0.7897590758837199,0.08806848023618197,-0.5870139459470594
507,12.668118476867676,0.6388,-0.1783,0.0998,-8.806,2.016,2.723,-0.115118,0.13598,-0.664011,0.10387283217934004,-0.603668080937373,0.4031330666573807,-0.6799110334152899
508,12.68949270248413,0.6411,-0.171,0.1007,-8.903,2.418,3.073,-0.093563,0.109398,-0.621815,-0.3844641123626631,-0.3156693197303162,-0.07493099825117824,-0.8642485593781866
509,12.715372085571289,0.6417,-0.1645,0.101,-9.139,2.057,2.001,-0.040487,0.097007,-0.557453,-0.21258255966050568,-0.9655590241696138,0.08237024486560938,-0.12537770508982155
510,12.739598274230957,0.6426,-0.1597,0.1026,-9.399,1.189,2.187,0.122214,0.083498,-0.513807,0.18303337179157764,-0.14976522976220208,0.38058168921544877,-0.8939948202304063
511,12.777437925338745,0.6428,-0.1516,0.1024,-9.418,0.615,2.533,0.158903,0.070514,-0.549935,-0.27913853588568577,0.7946028394740362,0.5158516532361432,-0.15679629184688196
512,12.789788722991943,0.6443,-0.1435,0.104,-10.013,-0.386,2.015,0.00824,0.082559,-0.608966,-0.8914051009675009,0.11802020046001462,-0.04759684001345875,0.43497438898541024
513,12.827702522277832,0.6446,-0.1392,0.1053,-11.218,-1.17,2.017,-0.186541,0.183503,-0.719127,-0.37155590576503894,-0.21714098142846952,0.4472161779294992,0.7840878096702775
514,12.839847326278687,0.6455,-0.1316,0.1059,-12.075,-1.312,2.782,-0.448446,0.226144,-0.78927,-0.1631811752030958,-0.10945765382860558,0.5436957480572732,0.8159570206954015
515,12.86529541015625,0.6444,-0.1246,0.1078,-11.63,0.675,2.366,-0.674116,0.288489,-0.648222,0.13581672275039147,0.10673128280403728,0.5286382849560541,0.83108592502284
516,12.892046451568604,0.644,-0.1195,0.1097,-12.276,2.52,2.649,-0.454786,0.215063,-0.494037,0.3467073386506963,0.8380277748835779,0.37323745026487887,0.1954412330323435
517,12.927967309951782,0.6422,-0.1171,0.1086,-13.468,3.179,3.259,-0.363734,0.103393,-0.306565,-0.23354185061676502,0.24694523102618104,-0.47262711536594537,0.8130804798448847
518,12.947764158248901,0.6412,-0.1176,0.1126,-13.873,2.816,2.909,-0.385388,0.143306,-0.016311,-0.04856940920932185,0.8255651365833565,-0.5460391282499347,0.13388236690174166
519,12.964354038238525,0.6362,-0.1217,0.112,-11.498,3.169,2.36,-0.298822,0.203214,0.407219,-0.19406547643050423,0.6081916685267839,-0.7682063683292462,0.047963119694184334
520,13.015576124191284,0.6323,-0.1306,0.1153,-9.568,3.734,1.745,-0.228487,0.225521,0.907155,0.762613048561109,-0.18003099914269932,0.4815672935536537,0.39255970156324227
521,13.017775774002075,0.6234,-0.1468,0.1176,-8.962,4.012,1.263,-0.460369,0.431045,1.58378,-0.15826365676885884,0.5428453904845111,0.3807142957938507,-0.7316612070856698
522,13.040736198425293,0.613,-0.171,0.1219,-9.926,4.187,1.581,-0.528538,0.496541,2.168056,-0.41373874665250093,-0.12133357353702387,0.853637462300288,0.2922353442153733
523,13.079796075820923,0.5945,-0.2004,0.1253,-11.492,3.63,2.683,0.423179,0.319012,2.392758,0.1406627652798635,-0.47702028408001523,-0.37487481668340944,-0.7823902522760773
524,13.090874671936035,0.581,-0.2258,0.1304,-11.673,2.837,2.149,0.594092,0.081796,2.540447,0.8246949170057453,-0.0451612870420805,0.3539565560037402,-0.43880919370446275
525,13.131891965866089,0.5641,-0.2498,0.131,-12.186,1.863,1.845,-0.107995,-0.020441,2.848406,-0.635691260564866,0.7472489503859796,0.15611407058961016,0.11464739138962443
526,13.139458656311035,0.5464,-0.2781,0.1283,-12.342,0.99,0.878,-0.104753,-0.180873,2.904959,0.42234455306723395,0.607943853957712,0.629779812116218,-0.23538635725195223
527,13.175888776779175,0.5238,-0.3031,0.1261,-11.928,3.039,2.374,0.743594,-0.4081,3.042826,0.3515328734541422,-0.4714934524885535,-0.4949697103161509,-0.6396276643571976
528,13.189746379852295,0.5065,-0.3215,0.1269,-12.074,2.48,2.26,1.188175,-0.548963,3.014681,-0.256034210502371,-0.4100969758968322,0.6757710833401374,0.5564174658779122
529,13.2300124168396,0.4869,-0.3403,0.1275,-10.451,1.976,0.343,0.44987,-0.573332,2.745991,-0.8479552179952439,-0.28687023969882497,-0.42016897612716153,0.14877985532332605
530,13.239935874938965,0.4718,-0.3565,0.123,-9.596,2.714,1.298,0.222662,-0.667821,2.561437,0.6456036468537125,0.3413089150767653,-0.6111086779250268,0.305369185451044
531,13.272531747817993,0.4535,-0.3713,0.1175,-8.622,3.007,0.998,0.326765,-0.735598,2.390125,0.2515811829329411,0.4093485809402003,0.566084580362349,-0.6698424408413439
532,13.289360046386719,0.4403,-0.3856,0.1152,-7.773,2.828,0.588,0.302595,-0.663663,2.191533,-0.5494543102798207,-0.7575809793065706,0.22427223795926687,-0.27179584983690586
533,13.314361095428467,0.4278,-0.3966,0.1134,-6.829,2.678,0.769,0.394424,-0.606414,1.949732,-0.233507258368172,-0.32237599540268824,-0.4171824183222646,0.8170109593636381
534,13.34120798110962,0.4159,-0.406,0.1111,-6.021,2.066,1.386,0.371031,-0.62188,1.66087,0.09691035508061166,0.7930620900782189,0.0158791559716058,0.6011728177192862
535,13.365137815475464,0.4051,-0.4125,0.1107,-5.954,2.101,0.111,0.47393,-0.488318,1.344198,0.2760555087715298,0.7762565061156473,0.4057378595219052,-0.39572210216337717
536,13.388777732849121,0.3981,-0.4152,0.1125,-5.367,2.147,0.31,0.493419,-0.350353,1.075014,0.45476550819265016,0.25255597414291836,-0.07068965832546314,-0.8511208989848809
537,13.427131414413452,0.3923,-0.4193,0.1143,-5.132,2.099,2.657,0.26373,-0.465887,0.734051,0.6570303070193521,-0.1517745982882651,-0.5129756141502497,-0.5311606783824137
538,13.44041895866394,0.3901,-0.4219,0.1119,-4.594,3.009,0.738,0.438553,-0.201304,0.391197,0.6526405442249026,-0.20468077354835026,-0.7278386230911984,-0.04916339807397929
539,13.473982572555542,0.3884,-0.4192,0.1113,-4.465,3.559,1.905,-0.054312,-0.356565,0.176478,0.5096247249290329,-0.20362592559888315,-0.8177957643247844,0.17328938229864885
540,13.48955488204956,0.3908,-0.4174,0.1087,-4.685,4.329,1.151,-0.143675,-0.2436,-0.073702,0.38698645753966343,-0.10585399711243713,-0.908889709802987,0.11382402378436737
541,13.519558429718018,0.3929,-0.4163,0.1061,-5.278,7.138,0.938,-0.223436,-0.203319,-0.218473,0.4421832416156973,-0.017236559079460576,-0.8928585481441521,-0.083549355899678
542,13.547301769256592,0.3957,-0.4157,0.1029,-5.287,7.563,1.882,-0.133487,-0.164838,-0.346825,0.6036073274346596,-0.009427178433835393,-0.7823552034432636,-0.15326336228601328
543,13.565407514572144,0.4003,-0.4103,0.0987,-4.972,6.131,2.408,-0.182069,-0.189537,-0.549699,0.7237545007769701,-0.18074636795013083,-0.6658151880141117,-0.014153038106634708
544,13.593017101287842,0.4079,-0.4055,0.0972,-5.424,5.869,1.418,-0.000857,-0.085561,-0.806894,0.5230371276547506,-0.40810418922065966,-0.6583136693509002,0.35567716623501366
545,13.622366189956665,0.4153,-0.4001,0.0931,-6.279,11.551,2.537,-0.577119,0.0027,-0.849569,-0.18476778700927035,-0.5244414128744679,-0.7069850364085153,0.43702886362387927
546,13.639885187149048,0.4226,-0.3955,0.0889,-9.662,13.251,3.855,0.131465,-0.40245,-0.52743,-0.691102238742544,0.12519392858421582,-0.7002311540710078,-0.12798635364396727
547,13.665263414382935,0.4299,-0.3852,0.0898,-9.966,3.614,-1.158,0.607833,-0.016508,-0.816572,-0.8456521989794878,0.25717836577230047,-0.32769712161608694,-0.33368584480672403
548,13.695026636123657,0.4404,-0.378,0.091,-7.896,3.909,5.633,-0.091106,-0.178773,-1.327105,-0.7316043859592825,-0.05426187197746474,0.4269931100712397,-0.528665826062488
549,13.714718341827393,0.4515,-0.3672,0.0851,-9.991,5.391,1.606,-0.463931,0.028221,-1.543125,-0.7880818978960121,-0.49946589692054033,0.3329167111222824,0.13648151331774677
550,13.740691900253296,0.4647,-0.3577,0.082,-11.043,6.387,2.444,-0.212165,0.088078,-1.549078,-0.6495679760364002,0.07289448214097008,-0.7550393951911304,-0.05160766116369164
551,13.764757871627808,0.4783,-0.3421,0.0806,-10.309,3.713,3.123,-0.257431,-0.031306,-1.670268,0.5580848349016889,0.39213102840363384,-0.717498513177434,-0.1413168680803347
552,13.816275835037231,0.4926,-0.33,0.0761,-9.388,4.392,1.76,-0.436381,-0.20411,-1.792977,0.060600989429724264,0.10364237777383592,-0.992742089424181,0.006994390269011349
553,13.817050457000732,0.5055,-0.3186,0.0717,-9.172,5.223,0.721,-0.206112,0.022365,-1.691937,0.14246036878341706,0.5807187444372581,0.5192612547055933,-0.6106050544721033
554,13.84098744392395,0.5159,-0.306,0.0742,-9.579,3.743,0.944,-0.153984,0.218484,-1.609274,-0.5622749629713081,-0.11680100699560944,0.8185230512122734,-0.014980167374755993
555,13.86550259590149,0.527,-0.2871,0.076,-9.773,2.3,1.416,-0.249394,0.26713,-1.595309,-0.29581920614852697,0.5116093878275749,0.5834600720012715,-0.5570647861251152
556,13.889744520187378,0.5363,-0.2755,0.0767,-9.391,1.875,2.568,-0.493622,0.26503,-1.583905,0.8673595190286035,-0.31724616876947503,0.29533236125672846,0.24458358396688137
557,13.91555905342102,0.5446,-0.265,0.0755,-8.885,2.037,3.509,-0.769,0.232432,-1.499487,0.5313404245617624,-0.3848661663026058,-0.6878447401328542,-0.31052375228575874
558,13.943147897720337,0.5529,-0.251,0.0764,-9.041,3.679,3.032,-0.562584,0.250365,-1.443791,0.03339283425506878,-0.8423468481476355,-0.5311776410114635,0.08477629223818922
559,13.965854167938232,0.5602,-0.2372,0.0776,-8.4,3.783,2.695,-0.203157,0.18094,-1.416726,-0.061478268208553816,0.8071947729971733,0.05681354943694181,-0.5843194687707187
560,13.991556644439697,0.567,-0.2221,0.0801,-7.887,3.006,2.654,0.004759,0.126859,-1.340841,-0.22772411748621613,0.1309464186969946,0.39773238837623454,0.8790925485875145
561,14.016398906707764,0.5723,-0.2079,0.0791,-8.554,3.057,1.455,0.032245,0.068101,-1.28903,-0.4592112849039206,0.433711478634403,0.4341772951227361,0.6422689666468051
562,14.040796041488647,0.5782,-0.1971,0.0824,-8.558,1.505,0.797,-0.330137,0.195897,-1.19092,-0.02926796376601436,0.8207141998941884,0.5653745609946009,-0.07696229056619544
563,14.077822208404541,0.5822,-0.179,0.0841,-9.042,0.709,2.302,-0.457943,0.178351,-1.155633,-0.7207382344447337,-0.07374168913322526,-0.6636806124892989,0.18608225412192295
564,14.096413373947144,0.5869,-0.168,0.0845,-8.641,2.224,3.875,-0.512908,-0.002097,-1.125839,0.07647979852591585,-0.9308666579598934,-0.057987158690118855,0.3525274385676401
565,14.116041898727417,0.5899,-0.1588,0.0808,-8.449,3.314,3.082,-0.596964,-0.019894,-1.027658,0.30756400560751523,-0.8365607932537057,0.42500959623244516,-0.15791537213243437
566,14.140876770019531,0.5943,-0.1477,0.0769,-8.458,3.797,1.034,-0.314098,0.016582,-1.062034,0.09095814618947051,-0.6736652864567,0.5391278668639843,-0.49723519649726866
567,14.171475172042847,0.5975,-0.1321,0.0775,-8.391,2.035,0.445,0.299938,0.120378,-1.029588,-0.024507985747357464,-0.6483608649020408,0.29321279734177974,-0.7021778998039551
568,14.205142259597778,0.5995,-0.1208,0.0781,-8.783,1.155,2.741,0.456672,0.123604,-0.948584,0.09757165319215116,-0.7297015872897598,-0.12945639498397488,-0.6642713359749227
569,14.214958906173706,0.6001,-0.1073,0.0808,-8.713,0.808,3.145,0.01083,0.104875,-0.90305,0.28230930213171107,-0.7900664180382043,-0.23074820962030387,-0.4927999358514692
570,14.241598844528198,0.6018,-0.0984,0.0795,-8.826,0.87,2.755,-0.334278,0.085436,-0.796168,-0.8320578124100283,0.20665164252277912,0.4322332255144594,0.2795520241590862
571,14.283522605895996,0.6021,-0.0871,0.0809,-9.318,1.584,1.969,-0.291819,0.117206,-0.69815,-0.6182749821258079,0.14217629821407562,0.5139559398819139,0.5773830951487691
572,14.295501470565796,0.603,-0.079,0.0807,-9.536,1.452,2.954,0.021262,0.12269,-0.705452,-0.3231415548654075,0.32494357764887427,0.779439748423365,0.4271590868068222
573,14.32005000114441,0.603,-0.0685,0.0805,-9.058,0.352,3.13,0.154277,0.049163,-0.790889,-0.5437884971963725,0.46105610678285003,0.6909409956996726,0.11967404554328809
574,14.341089248657227,0.6034,-0.0593,0.0813,-9.735,0.35,2.595,-0.10469,0.059055,-0.737424,-0.7257338691017687,0.3024135650450275,0.578266478008006,0.21786295538147388
575,14.364732503890991,0.6037,-0.0478,0.08,-10.859,0.468,3.252,-0.35781,0.077628,-0.611158,-0.615234462835951,0.356511323421409,0.61571344710184,0.33953377309075455
576,14.392009735107422,0.6043,-0.0442,0.08,-11.188,0.535,2.853,-0.83388,0.137128,-0.430987,-0.4613320030958738,0.4962330776478477,0.39254829089621296,0.6219576793336955
577,14.416188955307007,0.6048,-0.0421,0.0832,-12.449,1.004,1.437,-1.050874,0.210027,-0.309751,0.0835871399496155,0.7713152751929713,0.005915972285044757,0.6309127812629546
578,14.440883874893188,0.6062,-0.0394,0.0817,-13.281,1.036,2.35,-0.545867,0.154972,-0.242139,0.3696394702727188,0.5227308317003109,-0.35567357036888414,0.680893127405069
579,14.475884675979614,0.6066,-0.0348,0.0838,-14.235,0.367,3.076,-0.63174,0.06144,-0.201482,0.45757724433458036,0.43754906021117934,-0.6750868876959409,0.3787236187993738
580,14.489138841629028,0.6083,-0.0359,0.0867,-12.969,0.612,2.2,-0.585436,0.220554,-0.03579,0.7059087405165487,0.21434471369816213,-0.6738486807943527,0.040953011656082894
581,14.515069961547852,0.6094,-0.0375,0.0886,-10.994,1.047,1.903,-0.312306,0.367645,0.145164,0.6495058004544707,-0.08336030860267438,-0.7521778287255015,-0.07363279228342387
582,14.539793729782104,0.6106,-0.0381,0.0937,-9.291,1.93,1.913,-0.099343,0.371395,0.435991,0.3433817283642739,-0.10939098686149423,-0.914631608229661,-0.1832256036864288
583,14.56523847579956,0.611,-0.0459,0.0979,-8.467,2.548,1.95,-0.091447,0.462461,0.881902,0.35286049727101665,-0.7022109366258873,-0.40418906391726633,0.467996229213793
584,14.589572191238403,0.6113,-0.0581,0.1039,-9.148,3.258,0.856,-0.239695,0.711121,1.428558,-0.8163424582887987,0.3195377789831136,-0.4571501384600572,-0.1499811638289624
585,14.616118907928467,0.6093,-0.0783,0.1094,-9.713,3.356,3.15,-1.066081,0.502305,1.945318,-0.30779368471004137,0.7560436042231687,0.37050161324709086,0.44315874215359824
586,14.639259815216064,0.6079,-0.1061,0.1146,-11.074,3.918,1.459,0.382107,0.24856,2.255486,-0.1544018831561562,0.3994277455930856,0.10744779988796294,0.8972583266972195
587,14.67673134803772,0.6042,-0.1333,0.1204,-10.317,3.576,1.42,0.13213,0.17467,2.507743,-0.30841316712893974,-0.6055685507835121,0.3851561073330716,-0.6243579274963114
588,14.688971757888794,0.5998,-0.1611,0.1202,-11.021,0.765,0.285,-0.045871,0.159735,2.658887,0.42490937875677165,-0.08857667084199347,0.8084320954342182,-0.39754715481175606
589,14.716854333877563,0.5934,-0.1918,0.1195,-12.144,-0.743,0.241,0.258553,0.036697,2.438442,0.3793922115803946,0.13504937272699824,-0.3703435134908698,0.8370596745354655
590,14.739958763122559,0.5872,-0.2152,0.1204,-11.267,0.248,1.648,0.619667,-0.122568,2.312254,0.3329231948325228,0.9081872010512323,0.0633246056326012,-0.24565860154024766
591,14.771010160446167,0.5778,-0.2411,0.1176,-11.35,1.839,2.256,0.54077,-0.260905,2.226241,-0.13981733959321252,-0.9344545696643877,-0.15575900148996683,-0.2880710020763436
592,14.789750814437866,0.5718,-0.2662,0.1172,-10.241,1.951,1.633,0.114564,-0.519521,2.206543,-0.3795632109830819,0.14017347696089272,-0.4787749121203087,-0.779139107444298
593,14.835468769073486,0.5633,-0.2875,0.1101,-9.815,1.653,1.751,0.482858,-0.653577,2.114735,-0.49144936205663253,0.7555222710019689,-0.0167330319543747,0.43287830645086633
594,14.83944845199585,0.5556,-0.3066,0.1047,-8.342,0.555,1.752,0.30484,-0.737317,1.796169,0.2041954533118376,-0.13910144647079598,0.6789322022507499,0.6913798298934186
595,14.866845607757568,0.5459,-0.3257,0.0981,-7.619,0.952,-0.427,0.032021,-0.740579,1.48598,0.3797034150476666,-0.8428553137089138,-0.3043803713256939,0.2297233690886078
596,14.892788410186768,0.5401,-0.3405,0.0895,-7.268,1.289,-1.129,0.194475,-0.664372,1.250238,0.6471073756531321,-0.2911232443483611,-0.4811425784785084,-0.5147825950344989
597,14.92076563835144,0.5342,-0.3491,0.0884,-6.633,1.189,0.088,0.477518,-0.496041,0.999545,0.811113685182754,0.28934327075519456,0.16159625739340422,-0.4819353804965795
598,14.94351863861084,0.5296,-0.3591,0.0832,-6.587,1.22,1.458,0.331115,-0.468871,0.704959,0.5103842322952398,0.3043383865829784,0.7394789365216721,-0.3163178533014621
599,14.969372034072876,0.5264,-0.362,0.0808,-7.034,1.286,0.846,0.046332,-0.472586,0.402489,0.17196925835594865,-0.16702247613328494,0.9706122551355577,-0.021021817891857583
600,14.992316246032715,0.5255,-0.3658,0.0763,-6.566,1.427,-0.384,-0.026807,-0.314113,0.140873,-0.1811894549286942,-0.47689298077504083,0.8446712549999754,0.16209237269811838
601,15.019458770751953,0.5258,-0.3685,0.0728,-6.072,1.364,-0.206,-0.274018,-0.169829,-0.073185,-0.4443903208464274,-0.5484979810945314,0.6496250094009072,0.2822313849204299
602,15.045352935791016,0.5294,-0.369,0.0683,-5.894,2.031,0.858,-0.686385,-0.050224,-0.320923,-0.7299028342087288,-0.3922614888965233,0.270867516977243,0.4899015872492462
603,15.079342603683472,0.5328,-0.365,0.062,-5.477,3.32,2.283,-0.964509,-0.036531,-0.514567,-0.879368603800852,0.15229125230848117,-0.3592880679849604,0.2728192026293039
604,15.092171430587769,0.5393,-0.3647,0.0522,-5.51,4.62,2.18,-1.018105,-0.062603,-0.753771,-0.1863864987321677,0.7387982437082907,-0.1607060090321182,-0.6273840983360014
605,15.128285884857178,0.5446,-0.3587,0.047,-6.52,7.779,2.297,-0.528599,0.057782,-0.831789,0.45078970454263423,0.05157027974513642,0.5960561112156312,-0.6624547235908823
606,15.139570951461792,0.551,-0.3544,0.0436,-7.617,9.268,3.295,-0.029026,-0.002689,-0.846988,0.1453219355721235,-0.7132038478124623,0.5483013766456479,-0.411809915950985
607,15.165371417999268,0.5585,-0.3428,0.0451,-8.997,9.49,3.059,0.95248,0.066066,-0.731781,0.1188125909789006,-0.7179878607639936,-0.07703478840283862,-0.6815002871577932
608,15.191513061523438,0.5638,-0.3356,0.0491,-9.372,7.807,5.281,0.883012,-0.157587,-0.636702,0.348466015671015,-0.21776981830942435,-0.6495930425433982,-0.6396691498228277
609,15.215640544891357,0.5676,-0.3272,0.0548,-9.807,8.316,6.012,1.142189,-0.330621,-0.459975,0.4784520586518914,0.4919940252014,-0.6231766353408296,-0.3750685109458993
610,15.242956638336182,0.5719,-0.321,0.0578,-13.831,8.852,-0.679,1.60625,-0.441599,-0.146429,0.35680288687597456,0.9299445675861644,-0.07003697222469374,0.05467745107034444
611,15.26544737815857,0.572,-0.3164,0.0612,-9.29,5.648,-0.311,-0.005581,-0.197203,0.080124,-0.022178760784147974,0.9724061733636586,0.18718433287493977,0.13746403929933657
612,15.311663627624512,0.5736,-0.3162,0.0644,-8.415,-1.441,-0.312,1.142617,0.070316,-0.452495,-0.36213049047093354,0.8562489921237213,0.35605633432548517,-0.094461940193344
613,15.314954042434692,0.5769,-0.3084,0.0677,-10.123,-0.327,3.924,-0.92997,-0.042673,-1.151216,0.3461151941405879,0.6211853116196296,0.5599114218629795,-0.42524378970235815
614,15.340110301971436,0.5856,-0.2984,0.0598,-10.021,0.934,2.473,-0.087941,-0.213462,-1.296862,0.25589481843798323,-0.9223185853828778,-0.13089876364007724,0.2582862416611031
615,15.380008220672607,0.5935,-0.283,0.0579,-9.66,2.381,2.115,-0.018516,-0.284507,-1.172682,0.26877818966232814,-0.3993530178628317,-0.5977368218469734,-0.6410820101156872
616,15.389344692230225,0.6018,-0.2728,0.0535,-9.332,2.429,0.859,-0.129099,-0.183752,-1.095699,0.22395856128779973,-0.5035812480610471,-0.6800126621433892,-0.48356102898376524
617,15.424829006195068,0.6059,-0.2614,0.0525,-9.39,2.81,0.152,0.21452,0.061393,-1.068653,0.4731413154603097,0.3131819321913565,-0.13180657579979452,-0.8128231046970239
618,15.441222429275513,0.6126,-0.2517,0.0566,-9.606,0.717,1.523,0.230939,0.117563,-1.039014,0.6313258379587982,-0.12625926073883714,0.7434038054904242,0.18121000906588874
619,15.475927829742432,0.6184,-0.2361,0.0583,-9.178,-0.837,3.267,-0.289562,0.030322,-1.02057,-0.7245083523730834,-0.2557635631265679,0.12716850026517407,0.62729643682931
620,15.489893913269043,0.6237,-0.2278,0.0544,-8.981,0.956,2.968,-0.513318,-0.056583,-1.053215,-0.47852948363288406,0.6002745497734188,0.5932048922465416,0.2424622733604833
621,15.515997648239136,0.6274,-0.2162,0.0547,-9.586,2.776,2.406,-0.389789,-0.04556,-1.025097,-0.3304023811100584,0.7024327857314404,0.5091811448342282,0.3716947804740828
622,15.540120840072632,0.6336,-0.2056,0.0532,-9.361,2.586,1.999,-0.218799,0.002945,-0.953096,-0.5675330303704894,0.034391826633898816,-0.026365586394622924,0.8222094122261924
623,15.564982414245605,0.6351,-0.1924,0.0541,-9.481,1.58,1.873,-0.157124,0.066832,-0.905445,0.26679622873243686,0.7517418240095805,0.4838329703551083,-0.3600134152587249
624,15.592143297195435,0.6395,-0.1814,0.0536,-9.775,0.011,2.184,-0.027944,0.061233,-0.900526,-0.43037369286111893,-0.5921757800384391,-0.5237945425640084,0.43559798806825384
625,15.61495304107666,0.6418,-0.1706,0.055,-9.537,-0.831,2.379,-0.212905,-0.036497,-0.927948,0.78500117005272,-0.3056276280075389,0.44242901262229817,-0.30760605456395784
626,15.639868259429932,0.6447,-0.1593,0.0546,-9.987,-0.609,1.955,-0.534918,0.021452,-0.968214,0.2637782415828555,-0.06586778413354696,-0.04657223195047301,-0.9612041934427589
627,15.677481651306152,0.646,-0.145,0.0543,-9.91,0.612,1.79,-0.683672,0.139423,-0.91231,-0.27048059995544926,-0.5424691090984225,-0.14418928453903337,-0.7821617230124636
628,15.689781904220581,0.6488,-0.1356,0.0531,-9.404,1.423,2.02,-0.507702,0.186882,-0.843282,-0.3202934486812529,-0.6288731068946557,0.32214112946936246,-0.6309958913184267
629,15.71532678604126,0.649,-0.1256,0.0536,-8.752,2.554,2.553,-0.279386,0.128166,-0.875257,-0.44426401057914977,-0.3533180054134813,0.37174520440767045,-0.7345756454951851
630,15.739614486694336,0.651,-0.1154,0.0553,-8.552,3.321,2.541,-0.069185,0.112776,-0.806764,-0.6766952539123079,-0.29331588381231527,0.1491106169545325,-0.6586466044453553
631,15.77800440788269,0.6513,-0.1032,0.0532,-8.597,2.302,2.213,0.020087,0.058278,-0.699844,-0.6455983209512607,-0.7301967754123764,0.06305314536986267,-0.21456881884665202
632,15.78971529006958,0.653,-0.0967,0.0522,-9.144,1.864,3.11,0.009051,0.010123,-0.669944,-0.5806791634376505,0.5089486690947442,-0.21765555582729018,0.5970000170800269
633,15.833645343780518,0.6522,-0.0862,0.0525,-9.037,0.865,2.762,0.014845,-0.006887,-0.678096,-0.14926200238904416,0.18520029083228148,0.3071434725666939,0.9214578634848823
634,15.83919358253479,0.6534,-0.0782,0.0547,-9.317,0.723,2.099,-0.034092,0.000933,-0.711596,0.06148937496460494,0.6306893637282533,0.5842159920686826,0.5070913703246369
635,15.871326446533203,0.6544,-0.0682,0.0526,-10.044,0.379,1.956,-0.048338,-0.020875,-0.697059,-0.3558667079677033,0.834331045014848,0.22344662133333387,0.3568223660301844
636,15.891395330429077,0.6551,-0.0596,0.0531,-10.36,-0.493,2.526,-0.094146,0.009524,-0.716129,-0.42784234007933447,0.5417815084565655,0.20002213581962963,0.6952804285409746
637,15.915959119796753,0.654,-0.0509,0.0521,-10.49,-0.437,1.891,-0.412075,0.10894,-0.699308,-0.20630777470595016,0.6510720889730932,0.24049380299446868,0.6897136853632448
638,15.94434142112732,0.6546,-0.0442,0.0553,-10.767,-0.263,2.183,-0.6377,0.262635,-0.607406,-0.003010132572177554,0.6823726903397029,-0.034564342432815864,0.7301806330029856
639,15.977671146392822,0.6517,-0.0372,0.0572,-11.958,-0.288,2.804,-0.771874,0.327191,-0.591985,0.3704056671061783,0.5891536578220438,-0.27374273975573016,0.6638994816096483
640,15.99095106124878,0.6525,-0.0342,0.0628,-11.778,0.547,1.811,-1.082594,0.26861,-0.470923,0.6501531266277558,0.42106690654798223,-0.5859004549120113,0.2381684888480517
641,16.02899932861328,0.6517,-0.0334,0.063,-13.887,1.69,3.082,-1.174583,0.197674,-0.277507,0.5823684542520469,-0.3488615616413044,-0.722699168915134,-0.12980179332600345
642,16.04860520362854,0.6502,-0.0318,0.0665,-13.605,2.814,4.33,-0.993488,0.119195,-0.114845,0.2764318733883099,-0.4753141411375021,-0.359925692349593,-0.7537342917742395
643,16.065357208251953,0.6473,-0.0337,0.0693,-11.479,4.237,2.832,-0.664846,0.202134,0.310835,-0.032492148430809026,-0.6670240169085849,0.07643629460135695,-0.7403922703709843
644,16.10262942314148,0.6471,-0.0429,0.0717,-9.062,5.827,2.0,-0.386138,0.305372,1.022423,-0.03258777371682506,-0.7749764272791133,0.5140708425292224,-0.3661703743166255
645,16.118962049484253,0.6432,-0.0593,0.078,-8.269,5.432,2.105,-0.211473,0.280296,1.840947,0.35242528190778494,-0.6397674433873305,0.5446825309793119,0.4120861311665658
646,16.14064860343933,0.64,-0.0852,0.0829,-9.523,3.182,2.299,0.008954,0.099947,2.322508,0.5364626475415161,0.7979475538193833,-0.2502444383095662,-0.11342508647358047
647,16.17532444000244,0.6307,-0.1195,0.0891,-13.123,1.624,1.529,0.452651,0.358021,2.70408,0.4271433403411376,0.5669256140696591,-0.5538471423769266,0.4351979524249485
648,16.191558599472046,0.6236,-0.1489,0.0982,-14.873,0.436,1.884,0.366431,0.211422,2.841008,-0.5899199461138376,-0.34448811090963144,0.6760157957115118,0.2762698727105293
649,16.229828357696533,0.6142,-0.1777,0.1007,-13.723,0.82,0.065,0.207011,-0.082797,2.867466,0.7615596326169639,-0.29243693991722075,0.4646256470439787,0.3444278883150008
650,16.249229192733765,0.6052,-0.2082,0.1023,-12.484,1.079,1.081,0.027522,-0.308745,2.957647,0.9358117297838503,0.13862014975780676,-0.3219395645091078,-0.03736010283400612
651,16.265167713165283,0.592,-0.2432,0.1005,-12.31,1.511,2.415,0.202945,-0.617081,3.013406,-0.5041112078438844,-0.41283226351212116,0.6773822805739013,0.3414595997978955
652,16.290486335754395,0.5802,-0.2745,0.0994,-12.735,3.208,3.248,0.698046,-0.798169,3.045161,-0.25368480293631135,-0.6106914070511236,-0.37389912239753925,0.6503072138485269
653,16.322020769119263,0.5677,-0.3022,0.096,-11.947,2.518,2.016,0.926593,-0.881052,2.95875,-0.14168666787976222,0.6090597272749113,-0.7525804131042872,0.20638279620336822
654,16.340945720672607,0.5557,-0.3268,0.0926,-11.557,1.307,0.506,0.905064,-0.833689,2.815319,-0.16882457836545886,-0.7601128485446129,-0.13730805999306736,-0.6122689081425412
655,16.365039587020874,0.5378,-0.3537,0.0942,-9.805,0.627,0.169,0.775033,-0.749809,2.6332,0.1017634495789588,0.7898468392410426,0.2825560341705593,-0.5347413004664322
656,16.399959564208984,0.5235,-0.3758,0.0908,-8.57,2.158,0.45,0.307112,-0.848666,2.414535,-0.5338832984918389,-0.014027839060391983,0.47115157752848313,0.701988628337519
657,16.414573907852173,0.5088,-0.396,0.0879,-7.36,2.513,1.106,0.423589,-0.823971,2.17219,0.32218529922254013,-0.6708676146287054,-0.5373592931923105,0.3967092973792442
658,16.440017700195312,0.4962,-0.4135,0.0854,-6.471,1.899,0.596,0.555068,-0.755585,1.872162,0.6580486264238494,0.4895370742824958,-0.45665470864981317,-0.34466205946197964
659,16.482019662857056,0.4817,-0.4278,0.0862,-5.659,0.561,0.322,0.334359,-0.642208,1.497589,-0.035568668090807554,0.5279337608861978,0.3767400288126917,-0.7603208300822839
660,16.50205898284912,0.4729,-0.4381,0.0853,-4.695,0.341,-0.108,0.495792,-0.604112,1.148467,-0.3664334042096466,-0.3948528068357482,0.4828951354626793,-0.6903840303481402
661,16.515474319458008,0.4654,-0.4456,0.0889,-4.177,1.226,0.569,0.575963,-0.369836,0.799063,-0.2032173079298042,-0.9376529990466413,0.0036927529009368673,-0.2819502486479041
662,16.54104471206665,0.4612,-0.4515,0.0902,-4.041,2.165,1.89,0.240653,-0.301103,0.480409,-0.10890258317266756,-0.9503076926787165,-0.22769390982891552,0.18223885436644888
663,16.56605839729309,0.4596,-0.4529,0.0886,-3.935,2.757,2.027,0.141867,-0.163779,0.117861,-0.1894718064012283,-0.8421260910533404,-0.3446762496979502,0.36894764430801424
664,16.590803146362305,0.4611,-0.4526,0.0907,-4.291,4.795,2.034,0.01928,-0.077696,-0.084914,-0.18015633762584138,-0.8258244459721334,-0.3840984955441766,0.37151853812261226
665,16.6318998336792,0.4637,-0.4551,0.0891,-4.869,6.17,2.712,-0.414707,-0.230849,-0.184277,-0.4282665330493485,-0.6646767758103487,-0.6034227976390926,0.10331257260208734
666,16.6452054977417,0.4692,-0.4545,0.0844,-4.822,6.323,2.733,-0.350981,-0.22285,-0.348901,-0.5446172985843741,-0.3289362986320368,-0.6393837003311427,-0.43171911386429207
667,16.665398359298706,0.4754,-0.4526,0.0776,-4.769,10.03,2.287,-0.29216,-0.138222,-0.397787,-0.36382613391453494,-0.19190650342215515,-0.32567578396511093,-0.8513152893985844
668,16.69001078605652,0.4803,-0.4534,0.0755,-6.789,14.189,5.073,-0.16166,-0.514846,-0.145911,-0.09206931975501137,-0.12130446694576229,0.02545927276365728,-0.9880082449500104
669,16.71965980529785,0.4869,-0.4504,0.079,-7.764,7.797,-1.016,1.061035,-0.242417,-0.407762,0.35611259964283737,-0.14164974535368052,-0.3487646992502929,-0.8552674146567905
670,16.750521183013916,0.4932,-0.4459,0.0839,-8.057,6.23,1.373,0.041465,-0.181162,-0.703352,0.6495876381132206,-0.1607979898030754,-0.613638832808987,-0.41907909725325326
671,16.76770329475403,0.5045,-0.4402,0.0782,-7.912,4.655,2.048,-0.572595,-0.239481,-1.083307,0.29034345541018747,-0.4494032866057308,-0.7999425834567613,-0.2717153419683223
672,16.789881706237793,0.5174,-0.4326,0.0728,-9.745,6.842,1.637,-0.433716,-0.023066,-1.317027,-0.3155922757454193,0.31530731798570466,-0.6148142183607818,-0.6503739598230466
673,16.82618260383606,0.5298,-0.4243,0.0689,-11.601,7.008,2.147,-0.19401,0.074073,-1.314487,-0.0770335348793519,0.8968799933460248,0.3321790963447244,-0.281654327130312
674,16.8393337726593,0.5445,-0.4135,0.0707,-10.321,4.192,3.364,0.104127,0.161852,-1.578996,-0.4893003067160279,0.5102974568774145,0.4859457744154114,0.5138466888867247
675,16.869808673858643,0.56,-0.3946,0.0707,-9.595,3.382,2.869,-0.465367,0.032572,-1.804221,-0.7988801811470627,0.41355856866761326,-0.4367079999585801,-0.006774158560890059
676,16.893044471740723,0.5764,-0.3801,0.0656,-9.132,4.666,2.745,-0.684925,-0.043932,-1.842404,0.5017689926613549,-0.07436521584728785,0.05624686958411687,-0.8599616167815763
677,16.915786266326904,0.5897,-0.3623,0.0631,-9.129,5.47,1.959,-0.333991,0.064021,-1.761571,-0.010803942752788037,-0.39447936809629636,-0.35930254772322695,-0.8456778240955238
678,16.94039535522461,0.6033,-0.3483,0.0617,-9.272,4.569,1.544,-0.070238,0.125826,-1.692201,0.5363402219099296,0.4564478106577649,0.5316705672669164,-0.470447627700912
679,16.966124057769775,0.616,-0.3264,0.0646,-9.261,3.617,2.008,0.0431,0.147579,-1.635276,-0.05601449481199218,0.33276877020019235,0.5199984167022018,0.7846839928134205
680,16.990249156951904,0.6269,-0.3108,0.0669,-8.651,2.882,2.125,-0.046274,0.152029,-1.575911,-0.05550424561245429,0.7497778950540835,0.6193315528367106,0.22623177157094604
681,17.01621699333191,0.6341,-0.2927,0.0689,-8.871,1.973,2.399,-0.202342,0.202942,-1.48736,0.3701547710894025,-0.6094519755428864,0.36317468489200455,0.599714834900904
682,17.040469884872437,0.6427,-0.2774,0.0698,-9.766,2.654,2.62,-0.384795,0.25484,-1.483952,-0.1110011380989776,-0.5683562949506826,-0.6541259982072585,-0.4865891981949682
683,17.075361490249634,0.6494,-0.2572,0.0718,-9.434,2.857,2.412,-0.314248,0.264897,-1.477169,0.047428167416121075,-0.8562270530231548,-0.3438708724914625,-0.38259459700679554
684,17.091416358947754,0.6554,-0.2432,0.0756,-9.031,3.033,2.659,-0.256178,0.274952,-1.406775,-0.0895496538761387,0.5200482365232139,-0.15679076904590394,-0.834833723517296
685,17.116317749023438,0.6607,-0.2238,0.0763,-8.592,2.9,2.31,-0.073302,0.228977,-1.429493,0.21754145682568118,-0.03278775235674354,0.39644583679918405,0.8913087996548379
686,17.141445875167847,0.6663,-0.2071,0.0804,-8.569,2.141,2.392,-0.008362,0.269348,-1.378273,-0.22518571655733366,0.7028042408735599,0.18544812752296364,0.6488193770741795
687,17.177561283111572,0.6701,-0.1858,0.0842,-7.952,1.025,2.303,-0.314827,0.200848,-1.39673,-0.1186774476878473,0.9831957965451223,0.13858626536835983,0.005961217790943697
688,17.190865993499756,0.6738,-0.1704,0.0838,-8.532,1.517,2.124,-0.490521,0.181378,-1.324696,-0.7061211968943697,0.10655524984318437,-0.699908068382479,0.012943331890452325
689,17.23395037651062,0.6762,-0.1567,0.0846,-8.122,2.483,2.335,-0.693366,0.234161,-1.139902,-0.34977554877716743,-0.9012749465339607,-0.13507967197191098,0.21705763853824395
690,17.247882604599,0.6791,-0.1427,0.0855,-8.106,2.963,2.542,-0.466245,0.220751,-1.06874,-0.13110978120795683,-0.7185440387220254,0.6366231350237814,-0.24741801397863966
691,17.26498007774353,0.6815,-0.1259,0.0856,-8.202,2.926,1.8,-0.359566,0.239989,-1.050741,-0.49197777174170615,-0.4644820488590232,0.5778286554098929,-0.45642999834255515
692,17.292227268218994,0.682,-0.1141,0.0893,-8.6,2.78,1.948,-0.147936,0.190361,-0.977704,-0.7534471790372234,-0.4575140083475895,0.3569944936085549,-0.309116825973196
693,17.315667390823364,0.6841,-0.1014,0.0899,-8.767,2.99,2.421,0.222923,0.161323,-0.887207,-0.6958668827827605,-0.6822434593707668,0.18682863438145556,-0.12412979081257282
694,17.343322277069092,0.6861,-0.0898,0.0919,-8.739,2.875,3.028,0.409352,0.065704,-0.848968,-0.3035623272492883,-0.9248058461274353,0.22847545579055492,-0.019571063967313097
695,17.365225553512573,0.6865,-0.075,0.093,-8.959,2.087,2.533,0.409777,-0.002505,-0.775916,-0.8306210197500759,0.3219521246535281,-0.09102478387541912,0.4451180064891294
696,17.390905380249023,0.6877,-0.0645,0.093,-9.368,1.27,2.954,0.259976,0.00282,-0.710616,-0.49917897763726693,-0.18894869248448726,0.461216377486026,0.7088005312018912
697,17.420066118240356,0.6905,-0.0545,0.0931,-9.943,0.596,2.902,0.132925,0.007592,-0.657946,-0.14037555867080767,0.22748707853999503,0.9558543376663854,0.12201154367334455
698,17.440279245376587,0.6915,-0.0464,0.0942,-10.501,-0.508,2.754,-0.100764,0.038933,-0.672152,-0.7223512588714555,0.4870912612240716,0.45489675319720213,-0.18444431673708614
699,17.476352214813232,0.6922,-0.0346,0.0948,-11.364,-0.288,2.874,-0.35486,0.035826,-0.668293,-0.863700334149536,0.1356769011824585,0.33006583689994146,0.35590736798645595
700,17.497851610183716,0.6955,-0.0292,0.0938,-10.83,0.045,2.334,-0.434377,0.061085,-0.531175,-0.3567014686628059,0.28591973597776293,0.7275715912105507,0.511520817265095
