,time,magX,magY,magZ,linear_accX,linear_accY,linear_accZ,angular_velX,angular_velY,angular_velZ,orientationX,orientationY,orientationZ,orientationW
0,0.0,0.6415,-0.1059,0.1721,-10.531,-0.981,-1.141,-0.191671,0.224221,0.304551,-0.316546257871985,-0.5423274764481146,-0.0461757425999729,-0.7768829871428536
1,0.00893855094909668,0.6393,-0.1089,0.1715,-10.463,-0.529,-1.253,-0.045952,0.194619,0.316133,0.17519140180606824,-0.44162437438982516,0.5072416074999049,-0.7190144896307255
2,0.0485684871673584,0.6379,-0.1132,0.1768,-10.79,-0.315,-0.885,0.032553,0.236629,0.413093,-0.5066665877180847,-0.8103975820467687,-0.26712601136101816,-0.12324131595052255
3,0.05860710144042969,0.636,-0.1189,0.1784,-9.916,-0.307,-0.901,-0.053223,0.27606,0.554216,0.47143056961882857,-0.6335119362249102,0.604427720517412,0.10527571115673931
4,0.08529996871948242,0.6332,-0.1264,0.1804,-9.448,-0.094,-0.774,-0.221483,0.215309,0.717028,0.5139192092594972,-0.46030489368519234,0.4857614270747007,0.536695711898192
5,0.12465238571166992,0.6297,-0.1356,0.1841,-9.603,-0.068,-0.587,-0.264302,0.183882,0.761361,0.3731589203454361,0.891080471468183,0.010201699764766495,-0.25811613443676584
6,0.1336498260498047,0.6286,-0.1485,0.1806,-10.314,-1.107,0.776,-0.313027,-0.325996,0.915745,0.15988970382076217,0.5814983952317181,-0.7024588284549433,0.37795038468131503
7,0.16847586631774902,0.6302,-0.1607,0.1734,-10.289,-1.85,-0.898,-0.311917,-0.583122,0.702939,0.6209539964570719,0.3783742027899239,-0.541320942707172,0.42216197594489563
8,0.18596196174621582,0.632,-0.1717,0.1683,-9.774,-1.419,-1.575,-0.627449,-0.418193,0.548275,-0.7878176455619984,0.452229985861311,0.23839180254435996,0.34351236616558484
9,0.2091357707977295,0.6311,-0.18,0.1622,-9.349,0.248,-1.045,-0.817882,-0.094228,0.259161,-0.4217500795800572,0.8988663154469104,-0.06266954619804435,0.10118668543065229
10,0.2507307529449463,0.632,-0.1841,0.1584,-9.461,1.84,-0.366,-0.374349,0.009534,-0.051709,-0.09049300661602883,0.08461836349373814,-0.17323226441695067,0.9770574859639574
11,0.25844502449035645,0.6323,-0.1827,0.1606,-9.784,1.555,0.875,0.327137,0.02434,-0.347416,-0.28291405019359883,0.3392328841660962,-0.30041823024997194,0.8453576624345936
12,0.2847309112548828,0.6332,-0.1749,0.1611,-9.207,0.981,1.43,1.062042,-0.026311,-0.471582,-0.5291927264885978,0.7715968373952291,0.11381306739224367,0.3341256716327147
13,0.31386780738830566,0.6351,-0.1609,0.1636,-8.664,0.122,1.254,1.449998,-0.071804,-0.588646,0.4082757042709453,0.1768785895920963,-0.448917407812205,0.7749181084534964
14,0.3337435722351074,0.6398,-0.1453,0.1658,-8.22,-0.395,-0.177,1.520613,-0.26117,-0.661314,-0.21797158695145488,0.01823853393903764,0.1515568568905833,0.9639430804207612
15,0.3597147464752197,0.6428,-0.1283,0.1646,-8.346,0.268,-0.124,1.448888,-0.460039,-0.688727,-0.6175941943549061,0.5706736558924743,-0.18796399513247136,-0.5075219464252484
16,0.38379979133605957,0.6465,-0.114,0.1607,-8.886,-0.07,-0.816,1.256359,-0.629223,-0.574686,0.3459730704441177,0.7909738127791455,0.06941215582374044,-0.49984499062108406
17,0.4090545177459717,0.6522,-0.101,0.152,-9.147,-1.199,-1.171,0.782471,-0.870773,-0.475018,-0.25540819143028715,0.25775952551824444,-0.3197669906514783,0.8752575360684516
18,0.4337809085845947,0.6584,-0.0916,0.142,-11.974,-0.975,-1.13,-0.055664,-0.896401,-0.356803,-0.12739560508082112,0.6575146079049612,0.06700191913895248,0.7395644955170401
19,0.45885324478149414,0.661,-0.0905,0.133,-11.783,0.079,-2.321,-0.655979,-0.382592,-0.099104,0.46669994925419045,0.5490189561610982,0.2327005680413799,0.6531613803457254
20,0.4838111400604248,0.6604,-0.0929,0.132,-10.304,-0.838,-2.626,-0.804933,0.347082,-0.023473,0.41671960993548984,0.1039027705311017,-0.45923203541763924,0.7775956009503567
21,0.5108942985534668,0.6581,-0.0924,0.1356,-9.442,-2.391,0.779,-0.046685,0.479925,-0.163963,0.7657148771872333,0.39572401037029503,-0.40194818567449664,0.3090645410000493
22,0.5525367259979248,0.6561,-0.0899,0.1375,-10.291,-1.336,3.872,0.120547,0.151227,-0.33866,0.46541784527173,0.5565370969493334,-0.6366097789904956,0.26149699484984645
23,0.5613746643066406,0.6559,-0.0827,0.1399,-10.495,-0.289,2.783,0.088973,-0.018289,-0.422867,0.6025616181583793,0.14338413594887667,-0.3643710291836846,0.6954094038565858
24,0.5850081443786621,0.6565,-0.0792,0.1367,-9.867,-2.19,1.256,0.087126,-0.139589,-0.321264,-0.039334042107046274,0.29787217562565155,-0.8200774419937316,0.48702976218356514
25,0.6133341789245605,0.658,-0.073,0.1381,-9.614,-2.766,-0.399,0.210571,-0.088028,-0.357176,-0.1229208089614441,0.7388821393487338,-0.6595694306245182,-0.06254458458852466
26,0.6514358520507812,0.6581,-0.0662,0.1363,-9.147,-2.506,-1.418,0.233612,-0.047479,-0.345391,0.5681327100419433,0.7340184797035613,0.3006278068128767,-0.21923735312430104
27,0.6605534553527832,0.6579,-0.063,0.136,-9.368,-0.523,-0.256,-0.217825,0.05365,-0.120907,0.7252526241899827,-0.06364563574213356,0.5346791112292917,0.42904092132520194
28,0.6836788654327393,0.6581,-0.0657,0.136,-9.509,0.879,0.343,-0.674869,0.014429,-0.057714,0.2672239385979355,-0.540901855557763,-0.020908716583568687,0.7972323217639908
29,0.7094950675964355,0.6581,-0.0681,0.1355,-9.577,-0.288,0.008,-0.805243,-0.00024,-0.073192,-0.2709822269903207,-0.5065371608213199,-0.5968455591960475,0.5601465128253498
30,0.7419579029083252,0.6578,-0.0695,0.1363,-9.308,-1.658,0.737,-0.39758,-0.022188,-0.120741,-0.5759069720351905,-0.09873852583105289,-0.8108237306942044,0.0338635618490018
31,0.7588014602661133,0.6583,-0.0684,0.1341,-9.793,-0.992,2.323,0.034222,-0.004291,-0.213378,-0.5082351834844008,0.4258008675100605,-0.5938700253381796,-0.4557510422380705
32,0.7874817848205566,0.6571,-0.0657,0.1355,-9.996,-0.263,2.301,0.125386,-0.008158,-0.254311,0.0008198828050114404,0.7176253157385603,0.11582815579755557,-0.6867292569330761
33,0.8094418048858643,0.6582,-0.0603,0.1347,-9.978,-0.707,1.14,0.230834,-0.031849,-0.222479,0.3111722788958332,0.5143473439084015,0.6432710480435075,-0.4741529093131812
34,0.8336074352264404,0.6588,-0.0571,0.1352,-9.802,-1.388,0.765,0.292489,-0.040834,-0.152188,0.2890801660432992,0.3547645405600771,0.7974529197341226,-0.39324752913285915
35,0.8601243495941162,0.6589,-0.0546,0.1355,-9.431,-1.445,0.9,0.29665,-0.051627,-0.092316,0.1935169426479429,0.31567481066452263,0.7853056053327667,-0.4961811292794671
36,0.8842813968658447,0.6594,-0.0527,0.1353,-9.281,-1.549,1.053,0.140259,-0.087549,-0.083877,0.013685464598616442,0.3520486459603759,0.661907553893385,-0.6616289360623986
37,0.9097325801849365,0.6608,-0.0498,0.1329,-9.57,-1.697,0.728,0.001573,-0.137588,-0.065293,-0.33210810766305143,0.3828646372849578,0.40136409507517823,-0.7629061131788157
38,0.9520180225372314,0.6618,-0.0495,0.1321,-9.623,-1.483,0.808,0.007576,-0.114208,-0.059919,-0.6386647489757357,0.28556338002864423,0.17832889675638047,-0.6919246338901578
39,0.9591066837310791,0.6621,-0.0495,0.1287,-9.539,-1.528,1.234,0.202352,-0.07517,-0.085517,-0.7915998935875955,0.08655185276646701,0.06188336721416848,-0.6017049394155207
40,1.0011579990386963,0.6629,-0.0465,0.1292,-9.58,-1.794,1.376,0.370968,-0.0267,-0.129042,-0.7439411226180518,-0.08594415046604201,0.031145171950768383,-0.6619631314073467
41,1.009089708328247,0.6628,-0.0425,0.1274,-9.61,-2.096,1.22,0.384205,0.011676,-0.173721,-0.5030140220434764,-0.16271931988949487,0.0707759947816027,-0.8458664641212699
42,1.034027338027954,0.6624,-0.0363,0.1303,-9.56,-1.83,1.187,0.316228,-0.01163,-0.15338,-0.2241829410439616,-0.25943588774930226,0.0931660676582124,-0.9347486897181063
43,1.0594751834869385,0.6629,-0.0347,0.1269,-9.585,-1.571,1.411,0.163885,-0.051289,-0.090195,-0.10723955804579642,-0.3547096717930019,0.016010483496814984,-0.9286680732882127
44,1.0899152755737305,0.664,-0.0341,0.1301,-9.579,-1.675,1.185,0.077663,-0.053513,-0.042315,-0.10081956531264503,-0.4212879989400976,-0.06682965011170791,-0.8988245852585277
45,1.1090927124023438,0.664,-0.0328,0.1277,-9.525,-1.923,1.187,0.112726,-0.022544,-0.032101,-0.07867498586595345,-0.46324084375984975,-0.13514693840373931,-0.8723264711744969
46,1.1351654529571533,0.664,-0.0317,0.1272,-9.441,-2.199,1.139,0.149471,0.000461,-0.049298,-0.0017846628952694898,-0.47862239316984345,-0.18839113477202435,-0.8575699388819732
47,1.1597669124603271,0.6646,-0.0314,0.1277,-9.495,-2.219,1.241,0.180208,-0.00819,-0.065877,0.10645451014035144,-0.486052740001821,-0.24852385205578764,-0.831057197891248
48,1.184885025024414,0.6639,-0.0277,0.129,-9.553,-2.302,1.419,0.150609,-0.020677,-0.0788,0.21110574955995942,-0.4959536886040325,-0.3098668859552783,-0.7832284559763906
49,1.2093455791473389,0.6644,-0.0268,0.1269,-9.518,-2.192,1.532,0.047075,-0.041604,-0.065822,0.27145720944747187,-0.5210644491541342,-0.34063949400063753,-0.7340078735229479
50,1.2340731620788574,0.6647,-0.0258,0.1272,-9.55,-1.99,1.514,-0.064164,-0.059409,-0.035139,0.2645679513137236,-0.5677756380707436,-0.3275838928983495,-0.7073354346168315
51,1.2596189975738525,0.6652,-0.0268,0.1256,-9.582,-1.862,1.312,-0.093014,-0.052884,-0.007801,0.22379786689388415,-0.6145684835348663,-0.2832361658138481,-0.7014252406311542
52,1.2850465774536133,0.6649,-0.0263,0.1251,-9.524,-1.897,1.206,-0.071487,-0.025912,0.003242,0.18495082714347222,-0.6417211816808316,-0.24134311468728736,-0.7040885011943752
53,1.312178373336792,0.6641,-0.0266,0.1264,-9.536,-1.869,1.116,-0.056501,-0.003272,0.004149,0.15387821885167682,-0.6506608465851911,-0.21143224989455148,-0.7129224082525433
54,1.3334336280822754,0.6657,-0.0268,0.1248,-9.549,-1.816,1.152,-0.02778,0.006229,1.8e-05,0.13337911617771125,-0.6528251439294821,-0.19080572995685566,-0.7208484696777367
55,1.3702514171600342,0.6652,-0.0274,0.1261,-9.459,-1.793,1.306,-0.003518,0.014944,-0.008776,0.13203024523243992,-0.6502532970829401,-0.18387652709542007,-0.725208995228241
56,1.3880658149719238,0.6654,-0.0266,0.1261,-9.501,-1.676,1.291,0.017928,0.023552,-0.005665,0.14165509445909424,-0.6432232698875375,-0.1865304524112762,-0.7289746563579655
57,1.4092676639556885,0.6649,-0.0258,0.1272,-9.526,-1.583,1.489,0.039835,0.015964,-0.004345,0.15946249154067982,-0.6340629781878322,-0.19938422525971802,-0.7299190257835435
58,1.4332709312438965,0.6657,-0.0277,0.128,-9.607,-1.719,1.669,0.077796,0.00976,0.003336,0.1899479578010825,-0.622126014718745,-0.2317855709788588,-0.7232941616129461
59,1.4623212814331055,0.6651,-0.0279,0.1258,-9.552,-1.957,1.4,0.063876,0.01161,0.011135,0.22150529049066606,-0.6037904062530853,-0.2718444158926884,-0.7158723106457903
60,1.4928488731384277,0.666,-0.0266,0.1256,-9.565,-1.938,1.254,0.005661,0.001691,0.017877,0.2282802332478689,-0.5919966790107676,-0.2914607953669595,-0.7158761568264306
61,1.5081562995910645,0.6655,-0.0258,0.1269,-9.523,-1.881,1.142,-0.036308,-0.003252,0.016347,0.21062816946135254,-0.5914595090594834,-0.2863156150341337,-0.7237643207288545
62,1.5333218574523926,0.6654,-0.0268,0.1264,-9.544,-1.768,1.226,-0.026439,-0.00696,0.013242,0.18758552372827156,-0.5958879310642297,-0.27535246204817365,-0.7306916357421857
63,1.5746376514434814,0.6662,-0.0282,0.1243,-9.539,-1.643,1.302,-0.017695,0.001493,0.008847,0.17329832643955015,-0.5967705970217885,-0.27070957692165576,-0.7352202864083713
64,1.5871708393096924,0.6654,-0.029,0.1269,-9.536,-1.583,1.343,0.00855,0.006371,0.001703,0.1690006742156815,-0.5942551061287241,-0.2707385072485354,-0.738241357313053
65,1.6095621585845947,0.6657,-0.0271,0.1261,-9.574,-1.596,1.295,0.05025,0.013454,-0.001295,0.1865423591874798,-0.5841876200331786,-0.28678704203366245,-0.7359891068149867
66,1.633488655090332,0.6649,-0.0258,0.1285,-9.597,-1.699,1.202,0.08217,0.024601,0.005009,0.22108037284780008,-0.5623501487281175,-0.3208656116526739,-0.7293360255915633
67,1.6598799228668213,0.6657,-0.0271,0.1259,-9.577,-1.73,1.088,0.077387,0.033222,0.015933,0.25647428270140016,-0.5290178090946069,-0.3595811435876766,-0.7246119659167404
68,1.684253454208374,0.6657,-0.0269,0.1304,-9.626,-1.837,1.181,0.062034,0.034249,0.017194,0.2875070371917001,-0.49060090603709194,-0.3888173257891575,-0.7248941589825393
69,1.7099597454071045,0.6652,-0.0263,0.1296,-9.506,-1.968,1.188,0.055463,0.027748,0.0164,0.3132131719135621,-0.45610072354014647,-0.41044081924367076,-0.7248503106328815
70,1.7352697849273682,0.6649,-0.0255,0.1277,-9.533,-1.883,1.166,0.03245,0.016966,0.011232,0.3325364894383527,-0.4299038769827915,-0.425921006957074,-0.7233211151209766
71,1.7593674659729004,0.6651,-0.0287,0.1288,-9.538,-1.858,1.256,-0.009724,0.018363,0.004183,0.34368658846951194,-0.41607238048927186,-0.42098715190715813,-0.7290631804098179
72,1.8067307472229004,0.6647,-0.0266,0.129,-9.531,-1.772,1.039,-0.014509,0.021359,0.000377,0.3518829508298031,-0.41031644036901554,-0.3980488381435123,-0.741198981469086
73,1.8086426258087158,0.6649,-0.0266,0.1288,-9.563,-1.804,1.128,0.004972,0.029934,-0.001445,0.3783260425550201,-0.4000882974778268,-0.37089335406696056,-0.7478214223027522
74,1.8515663146972656,0.6639,-0.0258,0.1304,-9.556,-1.787,1.149,0.00629,0.026194,-0.000621,0.41021161608295287,-0.39270312741158625,-0.3445952761875175,-0.747505705249813
75,1.8598599433898926,0.6641,-0.0277,0.1301,-9.575,-1.717,1.219,-0.017155,0.020809,0.008606,0.4304162553895113,-0.3888513414165169,-0.3184296357866034,-0.7497593270029107
76,1.8873345851898193,0.6639,-0.0271,0.1274,-9.563,-1.79,1.16,-0.045113,0.016836,0.012676,0.4336279328733149,-0.39286335241777715,-0.2837603364529067,-0.7596744523907688
77,1.9108843803405762,0.6636,-0.0279,0.1311,-9.53,-1.803,1.042,-0.046708,0.016027,0.013419,0.4333473451249015,-0.4006346344766294,-0.24140392472571398,-0.7703415562320385
78,1.9354267120361328,0.6633,-0.0271,0.1295,-9.552,-1.812,1.071,-0.051129,0.014173,0.012964,0.4298396886462966,-0.4084716528101857,-0.20191574900289377,-0.779499057869585
79,1.9600226879119873,0.6625,-0.0285,0.1303,-9.552,-1.83,0.996,-0.057193,0.010744,0.012372,0.42304266923017025,-0.42092313196392184,-0.15909396614987664,-0.7864780524102358
80,2.0109996795654297,0.6631,-0.0277,0.1293,-9.553,-1.807,1.111,-0.063235,0.008156,0.014562,0.4110106948076168,-0.4324475389529804,-0.11660154376536255,-0.7940172635395308
81,2.012925148010254,0.6638,-0.0293,0.1301,-9.543,-1.828,1.069,-0.086801,0.007523,0.01228,0.393016614626911,-0.4500469587233821,-0.06341721965111549,-0.7993584501478412
82,2.033555507659912,0.6633,-0.0279,0.1298,-9.562,-1.73,1.113,-0.08157,0.006201,0.009668,0.3707578305196284,-0.4693311200667548,-0.007412327428012733,-0.8013813001607686
83,2.0594048500061035,0.6633,-0.0304,0.1325,-9.572,-1.707,1.167,-0.077449,-0.000386,0.005858,0.3409155142744852,-0.48173781830367435,0.03690789164455213,-0.8064385246733524
84,2.0839197635650635,0.6633,-0.029,0.1303,-9.566,-1.654,1.112,-0.062036,0.002121,0.009856,0.3145180400113583,-0.4881570275160616,0.0765120103020665,-0.8105103523543874
85,2.108846426010132,0.662,-0.0317,0.1285,-9.581,-1.687,1.216,-0.045728,0.000486,0.010506,0.29278745325655564,-0.48479330849636676,0.10223308614010956,-0.8178015354295661
86,2.1338274478912354,0.663,-0.0309,0.1295,-9.559,-1.757,1.083,-0.062116,0.000591,0.006629,0.2698087132384679,-0.48600868035517764,0.13242311875548618,-0.8206478772890914
87,2.168193817138672,0.6638,-0.0325,0.1309,-9.567,-1.689,1.02,-0.056259,-0.003434,0.005998,0.24554734535841535,-0.48862189910490256,0.16457118621405317,-0.8208967447679718
88,2.1840384006500244,0.6627,-0.0325,0.1293,-9.55,-1.736,1.075,-0.045585,-0.004289,0.001378,0.22188672850260732,-0.48844999415263946,0.189426763106985,-0.8223748441832998
89,2.2093422412872314,0.6635,-0.0328,0.1282,-9.548,-1.738,1.171,-0.028501,-0.000681,-0.001332,0.20830673909799996,-0.4913382971457875,0.20731289779031223,-0.8198880061410944
90,2.2335026264190674,0.6638,-0.0309,0.1295,-9.586,-1.736,1.15,-0.032033,-0.002005,-0.004982,0.1936444501912377,-0.49380546405140135,0.2208674179321514,-0.8184592685522584
91,2.258795976638794,0.6633,-0.0317,0.1319,-9.553,-1.698,1.067,-0.032669,0.000897,-0.007357,0.1819058234467823,-0.5025188100968668,0.23938124975714345,-0.8106057822145641
92,2.284238815307617,0.6627,-0.0322,0.1314,-9.572,-1.697,1.024,-0.023216,0.002144,-0.006822,0.17633542446144818,-0.5152090427924828,0.259470034801117,-0.7975843286732518
93,2.3085074424743652,0.6617,-0.0317,0.1311,-9.582,-1.748,1.133,-0.011008,-0.000942,-0.007403,0.17067432252470835,-0.5220047523836698,0.26772173922607645,-0.7916478917204037
94,2.333299160003662,0.663,-0.0314,0.1303,-9.532,-1.784,1.18,-0.009349,0.003529,-0.011444,0.16948915190648264,-0.5338215401586988,0.2739625589658018,-0.7818263918118432
95,2.3586585521698,0.6614,-0.0322,0.13,-9.56,-1.747,1.16,-0.014785,0.000862,-0.016267,0.16550991528463888,-0.5501684617937816,0.28151490605900653,-0.7685509021896497
96,2.3833565711975098,0.6624,-0.0331,0.1311,-9.561,-1.707,1.018,-0.006873,0.002678,-0.018563,0.1615359502802422,-0.5709435361482661,0.2885329782615793,-0.7514508205818101
97,2.408798933029175,0.6622,-0.0317,0.1295,-9.571,-1.712,1.12,0.013228,0.002925,-0.013284,0.16363393648763308,-0.5855823488911653,0.28436511310524704,-0.7412514620190013
98,2.43461537361145,0.6627,-0.0328,0.1293,-9.543,-1.748,1.121,0.008175,0.007358,-0.011066,0.17014944173418267,-0.5987148350950475,0.2797532746862743,-0.7309773040368365
99,2.4589874744415283,0.6632,-0.032,0.1317,-9.589,-1.803,1.135,-0.000461,0.00535,-0.014471,0.17273612023552343,-0.6134246688583764,0.27655398932620856,-0.7192984772608165
100,2.484924077987671,0.6625,-0.032,0.1295,-9.547,-1.78,1.051,-0.001867,0.002466,-0.016123,0.16981757883562498,-0.631812962287721,0.275905483039677,-0.7041665534745766
101,2.50909161567688,0.6638,-0.0295,0.1301,-9.55,-1.781,1.041,0.018051,0.002282,-0.017495,0.17201995225875244,-0.6502933267965451,0.2670006405869758,-0.6901002703049194
102,2.533342123031616,0.6633,-0.0304,0.1301,-9.564,-1.808,1.133,0.032529,0.005212,-0.018392,0.1803521363126179,-0.664641813137567,0.24803323373621103,-0.6813250928294367
103,2.560500144958496,0.6625,-0.0304,0.1306,-9.563,-1.827,1.108,0.022996,0.00283,-0.017757,0.18817715488389064,-0.6772298962690785,0.22769740024663518,-0.6738715900675002
104,2.6018879413604736,0.6625,-0.0312,0.1306,-9.566,-1.8,1.078,0.018335,0.004932,-0.016977,0.192072545960937,-0.691432709165499,0.21002253993500541,-0.6640176793605659
105,2.609022617340088,0.6628,-0.0293,0.1306,-9.594,-1.792,1.097,0.014674,0.000735,-0.013514,0.19420009598238525,-0.702454356240995,0.19656642391367066,-0.6559007860250458
106,2.6353185176849365,0.6626,-0.0274,0.1303,-9.543,-1.841,1.134,0.018215,-0.0025,-0.009917,0.19798213458846925,-0.7032656388618201,0.18265734666207015,-0.6579185430510692
107,2.6598315238952637,0.6625,-0.029,0.1311,-9.545,-1.815,1.132,0.010395,-0.002203,-0.011183,0.19876181448077923,-0.703804254364351,0.17044005331269535,-0.6603813298918388
108,2.6834466457366943,0.6625,-0.0285,0.1322,-9.564,-1.798,1.044,0.002932,0.000736,-0.010419,0.19579247115742046,-0.7115247082750014,0.16263833320992543,-0.6549402036239204
109,2.7104625701904297,0.6625,-0.0282,0.1325,-9.562,-1.766,1.124,0.01486,-0.000616,-0.005748,0.19788276548486747,-0.7137694402648068,0.15512483276737582,-0.6536909694397032
110,2.743413209915161,0.663,-0.029,0.1317,-9.557,-1.827,1.103,0.022586,-0.002802,-0.00455,0.20604477090480341,-0.7076255240583715,0.14339883492801514,-0.6604910629411954
111,2.759859323501587,0.6633,-0.0293,0.1314,-9.521,-1.834,1.098,0.023396,0.002281,-0.003935,0.2171949844344668,-0.705839496665137,0.1291947244578593,-0.6617595234345144
112,2.796149492263794,0.6628,-0.0287,0.1322,-9.548,-1.809,1.123,0.018445,0.001521,-0.006592,0.22531150201574002,-0.7064872711165162,0.11602817364955875,-0.6607934062392701
113,2.8112218379974365,0.6636,-0.0287,0.1295,-9.561,-1.868,1.172,0.02214,-0.001715,-0.006787,0.2327443407184034,-0.704696357932143,0.10211999042917175,-0.6624232955863452
114,2.835397958755493,0.6626,-0.0258,0.1327,-9.543,-1.868,1.082,0.02154,0.000573,-0.006767,0.23947953398899413,-0.705594818359334,0.08747847771676404,-0.6611603595507147
115,2.8599908351898193,0.6621,-0.0263,0.1306,-9.554,-1.829,1.098,0.024956,-0.00192,-0.004886,0.2484965907016664,-0.7065771046780785,0.07102757421481959,-0.6587513364354947
116,2.905738353729248,0.6628,-0.029,0.1309,-9.571,-1.787,1.078,0.016588,-0.002814,0.002942,0.25648374462559465,-0.6995739622960484,0.0618715279031154,-0.664066468100275
117,2.908578872680664,0.6633,-0.0271,0.1295,-9.571,-1.887,1.144,0.007957,0.00036,0.005064,0.2638024211028207,-0.6929833027456169,0.05697370082591352,-0.668533037441132
118,2.935709238052368,0.6633,-0.0282,0.1303,-9.541,-1.859,1.098,0.013776,0.003189,0.00486,0.2705996279484699,-0.6913526778118981,0.05369287690505414,-0.6677757042646326
119,2.960049867630005,0.6633,-0.0279,0.1301,-9.534,-1.837,1.1,0.015507,0.002842,0.004294,0.27934909762772964,-0.6903870205084593,0.04761536534253169,-0.6656294919482779
120,2.9850661754608154,0.6628,-0.0271,0.1325,-9.579,-1.833,1.112,0.020376,0.002167,0.005825,0.29030469408859055,-0.6859237716180047,0.04043617592945098,-0.6660305396869305
121,3.0098459720611572,0.6636,-0.0263,0.1314,-9.551,-1.844,1.089,0.018195,0.002788,0.00469,0.30085377270961067,-0.6815130759409895,0.03288695313336215,-0.6662922655122518
122,3.0442802906036377,0.6644,-0.0269,0.1312,-9.534,-1.823,1.074,0.019039,0.004508,0.002271,0.31207274196146595,-0.6820426231241898,0.025473999108409418,-0.6608929862965345
123,3.0586917400360107,0.6636,-0.0285,0.1322,-9.529,-1.822,1.15,0.019566,0.002499,0.004663,0.32331594857815515,-0.6807283278059678,0.018878771731761612,-0.6570535237675837
124,3.084498405456543,0.6636,-0.0282,0.1311,-9.557,-1.813,1.134,0.007752,-0.00205,0.007677,0.33160094247789595,-0.6724640052066501,0.014667974813814377,-0.6615268907339014
125,3.1089580059051514,0.6625,-0.0282,0.1325,-9.58,-1.809,1.075,0.001827,-0.001983,0.007375,0.3342927635129355,-0.6647724938675001,0.015561625618100539,-0.6678949883538513
126,3.1348721981048584,0.6636,-0.0274,0.1303,-9.565,-1.798,1.037,0.006584,0.000356,0.006218,0.3397990242692074,-0.6613471729350351,0.01752941676374603,-0.6684678447797276
127,3.164062738418579,0.6644,-0.0277,0.1317,-9.567,-1.834,1.104,0.009958,-0.000727,0.009781,0.34778683539199595,-0.6541276933427893,0.017404845254282764,-0.6714598642448685
128,3.20064640045166,0.6633,-0.0282,0.1309,-9.541,-1.824,1.11,0.003243,0.000517,0.011357,0.3528903667713459,-0.6425643108641124,0.0176620493884474,-0.679902601447526
129,3.2084083557128906,0.6634,-0.026,0.1314,-9.545,-1.78,1.059,0.000437,0.001207,0.010644,0.35727397575288145,-0.6374463306844778,0.02274141725518697,-0.6822758310887544
130,3.233685255050659,0.6638,-0.0293,0.1295,-9.542,-1.795,1.099,-0.002092,-0.003489,0.015764,0.3607971564743302,-0.6250121987454438,0.027734173217120073,-0.6916762096063347
131,3.259364604949951,0.6636,-0.0277,0.1314,-9.54,-1.773,1.129,-0.002349,-0.005876,0.016998,0.36004118451498895,-0.6044710223306227,0.03104723622258604,-0.7099445032807525
132,3.2849419116973877,0.663,-0.0301,0.1282,-9.562,-1.728,1.108,-0.004131,-0.006535,0.016911,0.3558946452353604,-0.5805411148101105,0.03304508774029746,-0.7315866576722589
133,3.3094427585601807,0.6623,-0.0269,0.1298,-9.568,-1.794,1.118,0.006622,-0.005813,0.012729,0.35199484199847875,-0.558546483788227,0.030607579152176934,-0.7504589480795848
134,3.3340229988098145,0.6633,-0.0287,0.1301,-9.586,-1.81,1.113,0.011561,-0.004003,0.010356,0.3504592098841889,-0.5410281377062152,0.020286268729162282,-0.7642351494916619
135,3.3587634563446045,0.6628,-0.0287,0.1306,-9.567,-1.786,1.133,0.015358,-0.002029,0.007265,0.35183553889789954,-0.5246891265285443,0.008476619995513718,-0.7751394848571382
136,3.3842368125915527,0.6612,-0.0304,0.13,-9.538,-1.772,1.108,0.006681,-0.003574,0.008175,0.3498559366436446,-0.5118806488713932,-0.0009503082183345002,-0.7845878674950881
137,3.4093432426452637,0.6617,-0.0293,0.1303,-9.558,-1.776,1.127,0.004186,-0.00565,0.010711,0.34410194021566454,-0.49566197179701277,-0.009943551650497817,-0.7973795772621006
138,3.4344799518585205,0.662,-0.0285,0.1306,-9.554,-1.808,1.158,0.002547,-0.00511,0.013135,0.33325923252592143,-0.47932454178702727,-0.021598958393021034,-0.8116155201653223
139,3.4589736461639404,0.6628,-0.029,0.1287,-9.581,-1.769,1.154,-0.006279,-0.004803,0.013722,0.3179158724343456,-0.4617270672314993,-0.03298962112458595,-0.8274353741158059
140,3.4837567806243896,0.6628,-0.0309,0.1311,-9.566,-1.741,1.147,-0.008025,-0.004752,0.014069,0.2981963302996069,-0.44615207325315304,-0.04295859640514724,-0.842722869704306
141,3.5089190006256104,0.663,-0.0304,0.1306,-9.552,-1.749,1.146,0.001082,-0.001118,0.01249,0.2839014269768169,-0.4325218811109726,-0.05254194002335581,-0.8541452725733104
142,3.5339159965515137,0.6625,-0.0298,0.1322,-9.562,-1.765,1.122,0.006442,-0.000852,0.010814,0.27253613879752697,-0.4186774051447039,-0.06689595712964745,-0.8636887254042054
143,3.558004379272461,0.662,-0.0304,0.1311,-9.543,-1.764,1.141,0.006668,0.000428,0.010285,0.26460846424102324,-0.40702277634945416,-0.08173574546602111,-0.8704217874673768
144,3.5838520526885986,0.6625,-0.0304,0.1301,-9.549,-1.77,1.126,0.001778,0.001703,0.011358,0.25872754098716777,-0.39799305580210526,-0.08930990361867491,-0.8756056921832216
145,3.6202211380004883,0.6622,-0.0309,0.1303,-9.567,-1.763,1.101,0.002423,0.000182,0.012723,0.2531588709622804,-0.3882844671022797,-0.09373052148688045,-0.8811131300814893
146,3.6358964443206787,0.663,-0.0328,0.129,-9.579,-1.746,1.109,0.011287,-0.000915,0.012456,0.24369761971248596,-0.3763695939062037,-0.10841080724902405,-0.8872454540886433
147,3.669872760772705,0.6617,-0.032,0.1303,-9.559,-1.753,1.149,0.008675,-0.004407,0.013935,0.22927033310029318,-0.3648063286113487,-0.13135070907654572,-0.892803700815738
148,3.683825731277466,0.6617,-0.0325,0.1298,-9.545,-1.734,1.133,0.001656,-0.003723,0.01285,0.2112166724673601,-0.3572456977535632,-0.15249882803932052,-0.8969432179101526
149,3.7253806591033936,0.6622,-0.0312,0.1301,-9.554,-1.74,1.108,-0.000397,-0.004888,0.009178,0.19507654666678648,-0.3521933500832092,-0.16607669271358347,-0.900179713854431
150,3.733126163482666,0.663,-0.0301,0.1322,-9.581,-1.74,1.131,0.006731,-0.008875,0.009346,0.17591949682734595,-0.34846895413802237,-0.18594969348830945,-0.9016897637932738
151,3.758169651031494,0.6625,-0.0306,0.1293,-9.578,-1.751,1.149,0.0088,-0.000712,0.007805,0.16072815522233308,-0.34472785428856784,-0.20738138679747362,-0.9012891472809278
152,3.784989595413208,0.6619,-0.0325,0.1311,-9.576,-1.688,1.133,2.4e-05,0.002337,0.007247,0.1546128219040036,-0.3403025582551844,-0.21642923359172844,-0.9019132059099448
153,3.810324192047119,0.6617,-0.0314,0.1314,-9.552,-1.67,1.121,0.002234,-0.001881,0.009788,0.14369857337146727,-0.3351934729271819,-0.2255832332315505,-0.9033871045143492
154,3.834033250808716,0.663,-0.0325,0.1295,-9.573,-1.677,1.084,0.014391,-0.002846,0.008701,0.12803401879700188,-0.33137645632985147,-0.2469606324647022,-0.9015583066189304
155,3.860551595687866,0.663,-0.0314,0.1295,-9.597,-1.751,1.154,0.02772,-0.002489,0.005579,0.12020356505561756,-0.3276801391017495,-0.2747961663882084,-0.895915116696064
156,3.8836441040039062,0.6627,-0.0312,0.1322,-9.577,-1.73,1.155,0.014161,0.000398,0.00462,0.11649094697302388,-0.32600492629516975,-0.2963430550186322,-0.8901300135636552
157,3.9246559143066406,0.663,-0.0306,0.1306,-9.578,-1.665,1.157,0.012358,0.001747,0.006449,0.11053204724127451,-0.3225292499757929,-0.3115446826263483,-0.8869596722342866
158,3.9337470531463623,0.6627,-0.0317,0.1295,-9.588,-1.656,1.157,0.021954,-0.005045,0.008818,0.09523401778322599,-0.324344705935097,-0.33920057619641875,-0.877880380630959
159,3.983063220977783,0.663,-0.0328,0.1306,-9.576,-1.643,1.165,0.036567,-0.004686,0.010505,0.07931725669192648,-0.32821507621566065,-0.38025281211968687,-0.8610409022866947
160,3.9850516319274902,0.6622,-0.0322,0.1301,-9.533,-1.701,1.17,0.036217,-0.007558,0.012139,0.061829497813925674,-0.33718892472763234,-0.4277874602342094,-0.836348390987551
161,4.014699697494507,0.662,-0.0304,0.1293,-9.562,-1.736,1.139,0.032809,-0.009087,0.015511,0.040656006669994166,-0.35300554105236925,-0.4737234404431893,-0.8058041195493117
162,4.039892673492432,0.663,-0.0317,0.129,-9.57,-1.809,1.184,0.029391,-0.008141,0.012661,0.024853570642412615,-0.3726363064150027,-0.5122378306762545,-0.7733931005586951
163,4.0587286949157715,0.6619,-0.032,0.1287,-9.558,-1.824,1.168,0.013285,-0.005681,0.008057,0.01608831577182951,-0.3887475530030268,-0.5365801047686938,-0.748797901503605
164,4.085230112075806,0.6632,-0.032,0.1295,-9.563,-1.732,1.158,-0.000395,-0.00575,0.010831,0.004857442576552601,-0.4045656799532528,-0.5490999136989985,-0.7312949477682243
165,4.115301609039307,0.6617,-0.0328,0.1292,-9.612,-1.663,1.167,0.002618,-0.004918,0.013907,-0.010067947898880575,-0.42312088055583075,-0.5612068777177397,-0.7112764562848046
166,4.1439125537872314,0.664,-0.0314,0.1287,-9.593,-1.645,1.181,0.01709,-0.006964,0.017589,-0.026219750479010734,-0.4522782939685629,-0.5832868176010029,-0.6741908912931108
167,4.158819198608398,0.6635,-0.0328,0.1287,-9.553,-1.732,1.174,0.021251,-0.009979,0.019719,-0.03622529948051567,-0.49029441563015175,-0.6074814639375823,-0.6239113596110323
168,4.184211492538452,0.663,-0.0328,0.1309,-9.537,-1.733,1.17,0.015321,-0.012059,0.02077,-0.04158976230054859,-0.5323684037136398,-0.6234604057879308,-0.5710965739819522
169,4.210278749465942,0.6635,-0.0339,0.1293,-9.535,-1.72,1.126,0.000705,-0.014655,0.020913,-0.043131975230880026,-0.5785360665414124,-0.6267406038814337,-0.5202229021004448
170,4.234306573867798,0.6632,-0.032,0.1303,-9.563,-1.725,1.167,-0.00625,-0.01486,0.019232,-0.040398762138094596,-0.6297234457514593,-0.6181931591760914,-0.46867210268641146
171,4.260656356811523,0.6635,-0.0344,0.1306,-9.599,-1.677,1.186,-0.009968,-0.005352,0.01447,-0.03613901032678449,-0.6704546091059291,-0.6041164855311103,-0.42921773142631936
172,4.29550838470459,0.6627,-0.0347,0.1295,-9.578,-1.654,1.206,-0.008542,0.00296,0.009215,-0.040040422245161716,-0.6853022099613005,-0.5971814601593161,-0.4148878755164745
173,4.3094260692596436,0.6627,-0.0333,0.1287,-9.569,-1.637,1.173,0.00483,0.001995,0.011676,-0.04123368385656062,-0.6965558388899171,-0.5947595686035119,-0.39921272797663365
174,4.3570263385772705,0.6632,-0.0349,0.1301,-9.589,-1.648,1.179,0.013775,0.001371,0.012593,-0.033499290691228784,-0.7126190099748855,-0.5926398949282369,-0.3739383626816686
175,4.358331918716431,0.6642,-0.0349,0.1301,-9.591,-1.663,1.159,0.003224,-0.003109,0.014878,-0.021181293414741953,-0.7349122700218774,-0.5843438565963369,-0.3435077370870842
176,4.3966662883758545,0.6629,-0.0349,0.1298,-9.594,-1.674,1.151,-0.010376,-0.003957,0.012373,-0.015093083683285186,-0.754013030722129,-0.571196800618387,-0.3239919185558152
177,4.408854246139526,0.6627,-0.0333,0.1303,-9.555,-1.634,1.159,-0.006373,-0.006676,0.013778,-0.007596369756911331,-0.7746041244139391,-0.5548628435915389,-0.3034105641024101
178,4.435680150985718,0.6624,-0.0355,0.1295,-9.551,-1.631,1.168,-0.000851,-0.005362,0.015461,0.011076058678700706,-0.8017259290064017,-0.5317041036472253,-0.2727702363669261
179,4.459470272064209,0.6626,-0.0363,0.1282,-9.61,-1.623,1.159,-0.006633,-0.001968,0.016694,0.02564226526371509,-0.8239567941795106,-0.5096574139183241,-0.2463473076687759
180,4.48427152633667,0.6637,-0.0366,0.1301,-9.576,-1.626,1.169,-0.006017,-0.0016,0.015934,0.03885357051431185,-0.8449387278019007,-0.48525304842786754,-0.22158164479544887
181,4.509030342102051,0.6626,-0.0363,0.1298,-9.558,-1.604,1.178,-0.003805,-0.000341,0.013595,0.05441175099409055,-0.8625555905445075,-0.46168386517833077,-0.1997128518853248
182,4.5347580909729,0.6642,-0.0352,0.1293,-9.58,-1.612,1.162,0.002583,-0.003946,0.013378,0.0732218125421617,-0.8775876861853891,-0.4387370358185546,-0.17885254436256723
183,4.559325456619263,0.6629,-0.0374,0.1284,-9.591,-1.629,1.225,0.003355,-0.007287,0.0116,0.10976084727231404,-0.8953434447030528,-0.4024028888159878,-0.15615565153359948
184,4.584480285644531,0.6626,-0.036,0.1271,-9.591,-1.611,1.16,0.004689,-0.005324,0.011807,0.1450796578015959,-0.9077712501106053,-0.368131388039094,-0.13922116040749974
185,4.608806133270264,0.6613,-0.036,0.1274,-9.606,-1.643,1.256,-0.000739,-0.002745,0.010339,0.17468375672898534,-0.9156412418529457,-0.3390235336678686,-0.12708164687473777
186,4.633524656295776,0.6626,-0.036,0.1295,-9.585,-1.626,1.183,-0.012587,-0.001936,0.007521,0.1924990381182694,-0.9218833417039298,-0.31336363617931257,-0.12197727711674711
187,4.669344902038574,0.6631,-0.0374,0.1285,-9.622,-1.59,1.209,-0.018705,-0.002318,0.010734,0.2027571192892913,-0.9282347809621436,-0.2884666197386284,-0.11856117107315925
188,4.684078693389893,0.6629,-0.0379,0.13,-9.614,-1.57,1.188,-0.01359,0.002497,0.008177,0.213943670942081,-0.9339399420358874,-0.2622983226715324,-0.11482107932575286
189,4.731848478317261,0.6629,-0.036,0.13,-9.603,-1.626,1.224,-0.000438,0.0012,0.006002,0.22230951107579172,-0.9363478449555734,-0.2487534080501958,-0.10932948603057063
190,4.732917308807373,0.6628,-0.0384,0.1295,-9.566,-1.61,1.168,-0.000511,0.002818,0.00584,0.2300503830766053,-0.9371139177940147,-0.23999084559841496,-0.10629543899912722
191,4.765998601913452,0.6639,-0.0387,0.129,-9.58,-1.611,1.206,-0.010326,0.002074,0.003688,0.23295988239955423,-0.9384208686701764,-0.23292992359863773,-0.10411348197534494
192,4.791222095489502,0.662,-0.0398,0.1308,-9.582,-1.613,1.228,-0.015792,0.00275,0.004227,0.2274679547279233,-0.9416039004404009,-0.22576125595167282,-0.10330672562056306
193,4.808718204498291,0.6633,-0.0398,0.1308,-9.585,-1.608,1.148,-0.014314,0.002625,0.004542,0.22127360062146176,-0.9445002961837072,-0.21998080836638964,-0.10278924130167122
194,4.833465099334717,0.6623,-0.0393,0.1298,-9.586,-1.593,1.166,-0.007154,0.005429,0.004809,0.21032549215471882,-0.9469414060325815,-0.2221738559522416,-0.098508571313493
195,4.858645915985107,0.6623,-0.0395,0.1284,-9.593,-1.578,1.208,-0.006525,0.004747,0.003996,0.20738770258587996,-0.9486551431660573,-0.21931490887118363,-0.0945765875233521
196,4.885732889175415,0.6618,-0.0401,0.1311,-9.611,-1.579,1.179,-0.012005,0.00301,0.005608,0.20551953474760487,-0.9508813880836677,-0.2127967615078785,-0.09112543511536303
197,4.909541845321655,0.6613,-0.0401,0.1282,-9.584,-1.619,1.138,-0.005052,0.004862,0.010618,0.20534605836980915,-0.9531185847599528,-0.20444901418370065,-0.08716972121373603
198,4.934587240219116,0.6618,-0.0401,0.1298,-9.556,-1.585,1.193,-0.014055,0.00306,0.014348,0.21905494677390974,-0.955545835478759,-0.18046853852970568,-0.0798635911666391
199,4.961359024047852,0.6612,-0.0406,0.1297,-9.567,-1.632,1.205,-0.026382,0.001196,0.014324,0.22822512145749718,-0.9586475803120886,-0.15209701645085627,-0.07599084342364165
200,4.98431134223938,0.661,-0.0414,0.1308,-9.569,-1.597,1.166,-0.038285,-0.000817,0.01346,0.23229671372382696,-0.9622919419020589,-0.11952217283719474,-0.07580834745429432
201,5.008431911468506,0.6615,-0.0411,0.13,-9.607,-1.612,1.178,-0.027151,0.002229,0.00835,0.2255520130759014,-0.9663700133910803,-0.09886031267441986,-0.07404002426962997
202,5.033432960510254,0.6612,-0.0417,0.1297,-9.579,-1.613,1.115,-0.01493,0.003977,0.001975,0.20557040984119146,-0.9704588400382469,-0.1036033473161902,-0.07222736887237263
203,5.058935880661011,0.661,-0.0417,0.1281,-9.586,-1.529,1.091,0.001279,0.006809,-0.001873,0.1825622667888703,-0.9732186227656853,-0.12140950170311769,-0.06911051977212107
204,5.083633184432983,0.661,-0.0422,0.1316,-9.588,-1.515,1.172,0.006365,0.008853,0.000336,0.16544869268313012,-0.9742379089181609,-0.13945456515058766,-0.06355825025024575
205,5.110220193862915,0.6607,-0.0406,0.1274,-9.612,-1.533,1.169,0.011196,0.008685,0.001002,0.1557613444399168,-0.9737269205461785,-0.15572845544767908,-0.057818128176255396
206,5.135778903961182,0.6602,-0.0411,0.1297,-9.593,-1.555,1.206,0.009087,-0.000684,0.001711,0.16367597596384148,-0.9726962917543035,-0.155375705096026,-0.05413399269981324
207,5.160396099090576,0.6612,-0.0409,0.1287,-9.584,-1.586,1.12,0.001997,-0.004826,0.001904,0.1795069605514504,-0.9718164861395902,-0.14276133023040805,-0.05449009975880012
208,5.18503475189209,0.6602,-0.043,0.1308,-9.58,-1.561,1.145,-0.005418,-0.009936,0.006196,0.2054782183039595,-0.9703219985305344,-0.11384587171184049,-0.05738500208687902
209,5.225655794143677,0.6599,-0.0411,0.1289,-9.579,-1.558,1.102,0.006454,-0.006668,0.007751,0.24169988125970804,-0.965419743127694,-0.07656605569583802,-0.06069205955874345
210,5.2343430519104,0.6599,-0.0406,0.13,-9.591,-1.592,1.106,0.015324,0.002622,0.004632,0.26016636570433754,-0.9615731351977806,-0.06605670954554949,-0.05768083690553124
211,5.259729623794556,0.6597,-0.0419,0.1287,-9.589,-1.584,1.149,0.012839,0.002639,0.000273,0.2638554205327945,-0.96033702438306,-0.07246888231822729,-0.05367846635382937
212,5.284017086029053,0.6599,-0.0414,0.1311,-9.595,-1.63,1.171,0.011076,0.000628,-0.002212,0.2652575339497614,-0.9594191831954952,-0.0803289309313389,-0.0519666667663788
213,5.3098320960998535,0.6594,-0.0409,0.1287,-9.608,-1.642,1.117,0.013477,0.001941,-0.000602,0.2684629331643368,-0.9580744415015817,-0.08601443200146709,-0.05121069757089755
214,5.350196838378906,0.6605,-0.0406,0.1308,-9.59,-1.648,1.189,0.017129,0.001245,-0.003251,0.2655387643465268,-0.9574552468466921,-0.10200235499312474,-0.048622366159168394
215,5.358691215515137,0.6586,-0.0428,0.1281,-9.585,-1.576,1.14,-0.001171,-0.000706,0.000464,0.267233637920355,-0.9566117737665734,-0.10462508277072248,-0.05033576372960445
216,5.3868303298950195,0.6599,-0.0422,0.1279,-9.587,-1.573,1.176,-0.006556,-0.004019,0.002312,0.2706238568199401,-0.956391677451677,-0.09669985018221569,-0.052219023313397936
217,5.4213457107543945,0.6589,-0.0406,0.1297,-9.587,-1.606,1.175,0.001419,0.000572,0.003132,0.27636505552356727,-0.955450400233593,-0.08913135727167901,-0.05284401508052754
218,5.442468166351318,0.6589,-0.0419,0.1297,-9.58,-1.594,1.192,0.006783,-0.001947,0.003344,0.2878301504916397,-0.9527022050328596,-0.08222501169513774,-0.052453412140885114
219,5.459364414215088,0.6597,-0.0419,0.1284,-9.584,-1.607,1.164,0.00458,-0.00136,0.001298,0.3037262749423992,-0.9485476808628381,-0.07000564343783718,-0.05573918663023274
220,5.485156297683716,0.6591,-0.0425,0.1303,-9.588,-1.604,1.181,0.000825,8.4e-05,0.001567,0.30650280424360804,-0.9477446274315691,-0.06907508889531856,-0.055360493671069266
221,5.528334856033325,0.6579,-0.0392,0.1279,-9.573,-1.641,1.152,0.00102,-0.000794,0.003324,0.30736711252479854,-0.9475402805223538,-0.06770918112724383,-0.05575250413089023
222,5.533592462539673,0.6592,-0.0414,0.1292,-9.599,-1.628,1.186,-0.005699,-0.00224,0.005023,0.31968111088100176,-0.9441592680228408,-0.05322698613706982,-0.05944873336940203
223,5.568712472915649,0.6578,-0.0425,0.1273,-9.598,-1.62,1.168,-0.011436,-0.000955,0.006562,0.32942172809418374,-0.9413480283117717,-0.036480401283762114,-0.06335925327177774
224,5.584436416625977,0.6583,-0.0425,0.1292,-9.58,-1.601,1.155,-0.008827,-0.001894,0.008476,0.34035852823316265,-0.9378153036716759,-0.01625240868670335,-0.06629017777950624
225,5.609476327896118,0.6589,-0.0411,0.1271,-9.598,-1.606,1.17,-0.003381,-0.002932,0.006542,0.35182446374833154,-0.9334254396928178,0.0010066060151077381,-0.07025298560772417
226,5.658800840377808,0.6594,-0.0422,0.1287,-9.574,-1.55,1.171,-0.003185,-0.000538,0.007486,0.367390320941549,-0.9269384492213502,0.0193066226185947,-0.07373410172130196
227,5.660156488418579,0.6594,-0.0422,0.1271,-9.575,-1.543,1.134,-0.000135,-7.3e-05,0.008853,0.3896296657227961,-0.9163643107900141,0.04523617170101829,-0.08011780244690136
228,5.684124946594238,0.6591,-0.043,0.1284,-9.607,-1.558,1.134,0.003185,-0.001598,0.008012,0.41492216127245785,-0.9026668140667425,0.07092535226297407,-0.08945287739342138
229,5.718527793884277,0.6589,-0.0417,0.1303,-9.575,-1.612,1.175,0.004379,2.7e-05,0.010283,0.4378400444448786,-0.888860527167349,0.09293116824874988,-0.09791249507704172
230,5.733601093292236,0.6594,-0.043,0.1252,-9.568,-1.591,1.143,0.002161,0.001553,0.009782,0.4558730504998687,-0.87688855777773,0.11041724173711842,-0.10513920198291166
231,5.766356945037842,0.6586,-0.0436,0.1292,-9.585,-1.587,1.175,-0.001117,0.001012,0.007802,0.4635498085844186,-0.8715315653113697,0.11968656128493486,-0.10596901752422896
232,5.783809423446655,0.6586,-0.0422,0.1273,-9.581,-1.561,1.164,0.000465,-0.002255,0.009069,0.4793890591906716,-0.8589509175226768,0.13746042150530952,-0.11616403804455558
233,5.810028314590454,0.6594,-0.0417,0.1279,-9.596,-1.555,1.17,0.012712,-0.001381,0.008793,0.5006671808024639,-0.8421181060578664,0.15565474167023288,-0.12625795385795832
234,5.833562135696411,0.6604,-0.0433,0.1287,-9.586,-1.545,1.217,0.016906,-0.001895,0.007669,0.5295904818087265,-0.8178361267783202,0.17450231041378572,-0.14222142937717613
235,5.870968580245972,0.6592,-0.0414,0.1284,-9.611,-1.551,1.213,0.013121,-0.002377,0.011007,0.5601506072817272,-0.7871599445092018,0.1980003582096455,-0.16554871509931682
236,5.8850836753845215,0.6588,-0.0436,0.126,-9.59,-1.558,1.224,0.003615,-0.004244,0.01294,0.5898076025735948,-0.7501178286703929,0.22478669035188462,-0.19728451256459412
237,5.90868067741394,0.6596,-0.0427,0.1268,-9.597,-1.5,1.195,0.00138,-0.006296,0.013929,0.6181328138254057,-0.7048153656557667,0.2545929721013942,-0.23733845740712312
238,5.934172630310059,0.6612,-0.043,0.1266,-9.593,-1.479,1.172,0.000715,-0.008246,0.014741,0.6445736709141859,-0.6493553857265831,0.2829995522636401,-0.28770404795669874
239,5.9593236446380615,0.6604,-0.0428,0.1284,-9.582,-1.423,1.142,0.009166,-0.008142,0.018025,0.6675487927998282,-0.5855423599156488,0.3058842390995495,-0.3434437162715228
240,5.985033750534058,0.6591,-0.0436,0.1281,-9.532,-1.371,1.123,0.029063,-0.013054,0.022957,0.690029033722781,-0.49304276926404395,0.3190701779563096,-0.4230401657466777
241,6.023625135421753,0.6589,-0.0417,0.1263,-9.648,-1.399,1.227,0.069156,-0.033832,0.017642,0.6957932895633441,-0.34009660100048317,0.29403711375945185,-0.5601322843030472
242,6.033908843994141,0.6594,-0.0425,0.1287,-9.646,-1.711,1.304,0.064222,-0.007021,0.003561,0.6839965727300115,-0.2316169545103917,0.23570498152740071,-0.6503425532441321
243,6.060486555099487,0.6591,-0.0438,0.1257,-9.584,-1.686,1.201,0.018564,0.006269,-0.004315,0.6972506135127272,-0.22978785789852108,0.2261821725968106,-0.6402192961149493
244,6.08458685874939,0.6596,-0.043,0.1279,-9.561,-1.526,1.21,-0.002827,-0.005498,-0.007369,0.7025901230602766,-0.24243465885459367,0.22722332493950084,-0.6292552071835722
245,6.12920880317688,0.6604,-0.0417,0.1273,-9.619,-1.531,1.163,0.010771,-0.007622,-0.006819,0.6975670633004006,-0.23739490703024999,0.21728058217600127,-0.6401820045298151
246,6.1336140632629395,0.6605,-0.0409,0.1279,-9.586,-1.559,1.264,0.024412,0.002716,-0.001916,0.7017747101965882,-0.23120438955450356,0.20646596616768462,-0.6414269959969476
247,6.168002367019653,0.6599,-0.0425,0.1276,-9.566,-1.525,1.189,0.011983,0.003293,-0.001598,0.7105554496748085,-0.2344678249452552,0.20419631810699987,-0.631220766193902
248,6.183788299560547,0.6602,-0.0425,0.1263,-9.585,-1.497,1.188,0.006935,0.001615,-0.002698,0.716539707791086,-0.24151541130205603,0.2047413655205977,-0.6215481690963499
249,6.224398136138916,0.6596,-0.0433,0.1271,-9.577,-1.533,1.182,0.010617,0.000969,-0.003466,0.7207112720347322,-0.2444327328085383,0.20348712852134052,-0.6159715009803355
250,6.234019041061401,0.6612,-0.0406,0.1279,-9.594,-1.543,1.266,0.018873,0.004035,-0.003736,0.7282033923570573,-0.24839017840653077,0.20016874503893012,-0.6065926245351035
251,6.276129722595215,0.6615,-0.0411,0.126,-9.597,-1.513,1.198,0.019846,0.007548,-0.002435,0.7406390595629105,-0.259602364429878,0.19968417396803165,-0.5866742081418689
252,6.283024311065674,0.6615,-0.0417,0.1271,-9.588,-1.55,1.184,0.008617,0.006846,-0.003655,0.7513728563877243,-0.27572287333872963,0.20252723631229497,-0.5642680624962667
253,6.309344291687012,0.6602,-0.0406,0.1273,-9.573,-1.578,1.2,0.005436,0.002297,-0.002792,0.7584339583947679,-0.29139070842919684,0.20400846610435505,-0.5461226341697646
254,6.3340466022491455,0.6612,-0.0409,0.1276,-9.596,-1.565,1.235,0.006907,0.004371,-0.001616,0.7640936187805646,-0.3061064180834463,0.20562836797109366,-0.5293172742623162
255,6.359370708465576,0.6618,-0.0406,0.1282,-9.593,-1.565,1.172,0.000958,0.005611,-0.002143,0.7689884849590429,-0.32006805447843356,0.20718601600742362,-0.5131150994404255
256,6.389444589614868,0.66,-0.0403,0.1284,-9.598,-1.574,1.197,-0.008323,0.005444,-0.000303,0.7715179368146098,-0.34113798632703185,0.2134658076070522,-0.49276495049945945
257,6.40902042388916,0.6612,-0.0406,0.1276,-9.583,-1.589,1.21,-0.012614,-0.000314,-0.002625,0.7700018419685922,-0.36050850641984356,0.2185110362452222,-0.4789401916763176
258,6.437023878097534,0.6625,-0.0425,0.129,-9.594,-1.559,1.177,-0.013238,0.000396,-0.000664,0.766910380053353,-0.37543893133610484,0.22261163356646882,-0.47046587379372523
259,6.478710174560547,0.6623,-0.0417,0.1292,-9.586,-1.524,1.209,-0.016908,-0.001642,0.003473,0.763648712732512,-0.38087042525473264,0.22751567834363004,-0.46905754318217113
260,6.48328161239624,0.6615,-0.043,0.1292,-9.61,-1.519,1.195,-0.00916,0.001821,0.00176,0.7608619930452785,-0.3811887243302767,0.2321686336578604,-0.4710434263717786
261,6.508631944656372,0.661,-0.0403,0.13,-9.584,-1.516,1.21,-0.009315,0.002584,0.002044,0.7600100621267474,-0.3840541672887818,0.2360370765649835,-0.4681598023547882
262,6.53439998626709,0.6623,-0.0419,0.1276,-9.571,-1.552,1.205,-0.017173,0.006306,0.003535,0.7598222001065552,-0.394688986413259,0.24082499878852723,-0.4570493935974689
263,6.560323476791382,0.6617,-0.0417,0.1268,-9.584,-1.551,1.196,-0.02841,0.002592,0.00308,0.7546687975365184,-0.4135914429991033,0.25046271471971976,-0.4434924495839058
264,6.583744287490845,0.6612,-0.0428,0.1284,-9.594,-1.554,1.175,-0.020763,0.002572,0.001461,0.7488148737485011,-0.4362228675454323,0.2591961130207174,-0.42638394631881726
265,6.610178232192993,0.6605,-0.039,0.1271,-9.617,-1.559,1.138,-0.01211,0.00669,-0.002693,0.7428485804901017,-0.4677618336948478,0.26342576154557806,-0.39997715129292893
266,6.636952877044678,0.6628,-0.0419,0.1287,-9.595,-1.54,1.148,0.000629,0.009323,-0.003807,0.7387505536023232,-0.5083068902844815,0.26005987272251063,-0.3581069497247051
267,6.677553415298462,0.6615,-0.0411,0.1282,-9.598,-1.464,1.219,-0.001491,0.003583,0.001357,0.7364297786415926,-0.5277497253917549,0.25858852997755705,-0.3350871239586329
268,6.685993194580078,0.6614,-0.0433,0.1274,-9.593,-1.493,1.226,-0.004761,-0.000277,0.005239,0.7393309779553328,-0.5116114238908747,0.2645013171768913,-0.3488302010888001
269,6.709090232849121,0.6615,-0.0411,0.1282,-9.577,-1.506,1.175,0.009974,-0.003528,0.001704,0.743155830797116,-0.4924420461854862,0.26734646048957245,-0.36571315585387015
270,6.736083507537842,0.662,-0.0414,0.1279,-9.6,-1.485,1.154,-0.007601,-0.000438,0.002587,0.7463431653908308,-0.47052416046340556,0.2681419239100619,-0.3868834482585327
271,6.761090040206909,0.6623,-0.0406,0.129,-9.584,-1.496,1.165,-0.003636,-0.002476,0.00421,0.7451258629522192,-0.4588846941358548,0.27398006653841667,-0.3989325870208631
272,6.785342454910278,0.6607,-0.0428,0.1284,-9.592,-1.523,1.146,0.011478,-0.006379,0.004578,0.7486030110603081,-0.4272933129062814,0.2732429729243908,-0.4270272056022374
273,6.824954986572266,0.662,-0.0411,0.1282,-9.625,-1.575,1.155,0.024416,-0.000702,0.000956,0.7549762401158525,-0.4046832853159006,0.2666872373888815,-0.44172415924459724
274,6.840903043746948,0.6618,-0.0411,0.1282,-9.625,-1.508,1.208,0.009785,-0.002335,0.000974,0.7598186824095308,-0.38703505511646896,0.2598866966489156,-0.4531427378623107
275,6.859074115753174,0.6625,-0.0417,0.1295,-9.608,-1.47,1.204,0.00192,-0.002997,0.004811,0.7611156235499552,-0.3653135025197832,0.25626155465862394,-0.47072185849908893
276,6.886319398880005,0.6617,-0.0417,0.129,-9.581,-1.511,1.222,0.007802,-0.001197,0.006068,0.7610414751870204,-0.33816898822667557,0.25251682701525147,-0.49263867136173967
277,6.910409212112427,0.662,-0.0403,0.1252,-9.605,-1.497,1.23,0.011892,-0.004793,0.008006,0.7574445799182707,-0.2999152477249814,0.24461331967875213,-0.5258258992958011
278,6.933939695358276,0.6631,-0.0411,0.129,-9.584,-1.503,1.198,0.005914,-0.005986,0.009325,0.7510838099886694,-0.25895326755952114,0.2350906523343007,-0.5599541952500976
279,6.969018220901489,0.6635,-0.0428,0.1274,-9.571,-1.585,1.232,-0.001154,-0.00917,0.007922,0.7373482102257999,-0.21480723220297115,0.21945320018748293,-0.6016774574450842
280,6.983910322189331,0.6622,-0.0425,0.1279,-9.577,-1.587,1.192,-0.005097,-0.008255,0.002969,0.7237111154878938,-0.18974358330369845,0.20620938867532668,-0.6306483028887726
281,7.009383678436279,0.6617,-0.0417,0.1276,-9.587,-1.54,1.224,0.004033,-0.006257,0.000796,0.7129514127381247,-0.1706554484803504,0.19270793106559744,-0.6522581193692415
282,7.0340540409088135,0.6625,-0.0417,0.1276,-9.577,-1.518,1.192,-0.000521,-0.005474,0.001146,0.7012674540446592,-0.15071927085366485,0.17704549968135977,-0.6739158332712172
283,7.059865951538086,0.6623,-0.0417,0.1284,-9.6,-1.491,1.219,-0.004454,-0.003762,0.00322,0.6916342820167329,-0.1347391483869964,0.16631335923316376,-0.6898023255772089
284,7.084383249282837,0.662,-0.0419,0.1282,-9.563,-1.504,1.193,-0.003482,-0.005636,0.003746,0.6802528340510278,-0.1195693183292938,0.1572684216296454,-0.7058511907179394
285,7.1154210567474365,0.662,-0.0417,0.1274,-9.581,-1.543,1.174,0.00112,-0.005019,0.003125,0.6676083984968865,-0.10441106089280186,0.14463080371633846,-0.7228272872796295
286,7.134799003601074,0.6622,-0.043,0.1268,-9.562,-1.51,1.228,0.00188,-0.003891,9.4e-05,0.6587235203569544,-0.09361161043364881,0.1340999683342644,-0.7343959345021657
287,7.179268836975098,0.6628,-0.043,0.1282,-9.588,-1.526,1.198,0.003359,-0.003874,-0.000118,0.6522473005320658,-0.08560984164306815,0.12446093575494858,-0.7428013795312206
288,7.186228275299072,0.6612,-0.043,0.1273,-9.607,-1.518,1.186,0.005279,-0.006528,-9.3e-05,0.6443673386467806,-0.07531821620471886,0.11217238648161697,-0.75268536248822
289,7.220771789550781,0.6617,-0.0422,0.1284,-9.618,-1.515,1.189,0.010448,-0.004173,0.000245,0.6335041051160185,-0.06157319328292756,0.09427704408802265,-0.7655018808782384
290,7.232997179031372,0.6633,-0.0419,0.1276,-9.608,-1.489,1.218,0.005587,0.001145,-0.0,0.6350680941616278,-0.05727050229327861,0.08883045911782873,-0.7651913191339201
291,7.259082794189453,0.6625,-0.0427,0.1266,-9.573,-1.477,1.232,0.006165,-0.00075,0.00093,0.6321452329795387,-0.050729103719276566,0.08318594332343866,-0.768699591056528
292,7.2838780879974365,0.6622,-0.0433,0.1287,-9.585,-1.49,1.183,0.012161,-0.006417,0.001943,0.6185352208922487,-0.03237050614845338,0.06373097629597889,-0.782499005435682
293,7.308679819107056,0.6623,-0.0414,0.1276,-9.609,-1.545,1.182,0.020845,-0.00736,0.000455,0.6061592294791859,-0.014726691041198574,0.03924241246097525,-0.794238091602524
294,7.334464073181152,0.663,-0.0414,0.1284,-9.59,-1.529,1.215,0.016224,-0.007862,-0.000114,0.5906965513446186,0.0019027661337616452,0.010252872573037326,-0.8068264015974042
295,7.358937501907349,0.6631,-0.0406,0.1268,-9.602,-1.505,1.205,0.005625,-0.008154,0.000505,0.5679681731788637,0.018778984578703205,-0.02087310206868633,-0.8225714665632935
296,7.384092092514038,0.6625,-0.0419,0.1279,-9.604,-1.518,1.218,0.007215,-0.007173,0.002491,0.551280413403624,0.030491723318390115,-0.043166665333679605,-0.8326444617065403
297,7.410143136978149,0.6625,-0.0414,0.1258,-9.59,-1.52,1.234,0.009095,-0.006821,0.004474,0.5278186452781168,0.046194886258320245,-0.0728305536866633,-0.8449669938110296
298,7.443516969680786,0.6628,-0.0414,0.1282,-9.606,-1.545,1.237,0.005505,-0.007012,0.002867,0.5006198039945752,0.05964430707820477,-0.10592601710234366,-0.8570892878705392
299,7.45909571647644,0.6631,-0.0409,0.1263,-9.586,-1.508,1.187,-0.001517,-0.007223,0.001826,0.479707604178622,0.06563605563861544,-0.12864819107098122,-0.865460666713153
300,7.4834206104278564,0.6633,-0.0433,0.1263,-9.595,-1.497,1.222,0.00151,-0.010652,0.004083,0.45309156839637815,0.07380836179211116,-0.1576692598603727,-0.8743001549083456
301,7.508777618408203,0.6636,-0.0414,0.1255,-9.606,-1.518,1.23,0.006747,-0.01124,0.004452,0.41693639962701295,0.08248406624330222,-0.19733271094261406,-0.8834139565764586
302,7.534091472625732,0.6636,-0.0406,0.1279,-9.581,-1.526,1.248,0.005145,-0.009456,0.003958,0.3838125272691969,0.08731975555361277,-0.23577244466734773,-0.8885238086494205
303,7.573002576828003,0.663,-0.0419,0.1268,-9.588,-1.516,1.223,0.002203,-0.008274,-0.000132,0.35888587889217133,0.08872159166559197,-0.26451459281938483,-0.8907083895920779
304,7.584367752075195,0.6635,-0.043,0.1279,-9.6,-1.484,1.238,0.000309,-0.01076,0.002055,0.33189594728342914,0.08747806187377535,-0.2936142646951501,-0.8921789800455789
305,7.621119737625122,0.6628,-0.0428,0.1271,-9.616,-1.481,1.239,0.00143,-0.0115,0.001983,0.2964136199210393,0.0854562819019272,-0.3325116263407297,-0.8912195061583014
306,7.633911371231079,0.6626,-0.0401,0.1276,-9.586,-1.501,1.265,0.001536,-0.007583,0.001463,0.26197184761558734,0.08010558538627101,-0.3702662473141771,-0.8876129518808719
307,7.658406972885132,0.6633,-0.043,0.125,-9.584,-1.508,1.237,0.003922,-0.009142,-0.000735,0.2466006786298478,0.07573083929152445,-0.3905663428155506,-0.8836916188010304
308,7.683591842651367,0.663,-0.0427,0.1258,-9.606,-1.497,1.275,0.003124,-0.009987,0.001394,0.22249509427126155,0.06760913724913932,-0.4189903293759596,-0.87770840344335
309,7.708905220031738,0.6635,-0.0422,0.1253,-9.607,-1.478,1.255,0.004606,-0.006912,-0.002209,0.2042887281528568,0.06005969375440097,-0.44161991781345583,-0.8715680104996122
310,7.7349865436553955,0.6636,-0.0417,0.1231,-9.61,-1.457,1.248,-0.00091,-0.007258,-0.004355,0.19113900259408412,0.05281374358302635,-0.45838032589815353,-0.8663510068128205
311,7.773552894592285,0.6635,-0.0425,0.1279,-9.578,-1.477,1.256,0.002135,-0.005915,-0.001296,0.1791343908976196,0.045569501390097356,-0.47480796055287755,-0.8604601624342721
312,7.78430700302124,0.663,-0.0444,0.125,-9.581,-1.473,1.279,0.012875,-0.007881,-0.000743,0.1608154844973729,0.03744797998510026,-0.4986915853911589,-0.850907005142726
313,7.80841851234436,0.6625,-0.0417,0.1236,-9.611,-1.493,1.269,0.019483,-0.009182,-0.004991,0.14218025758498828,0.025939504735538875,-0.5307756889244416,-0.83509824840789
314,7.837854385375977,0.663,-0.0417,0.125,-9.579,-1.521,1.244,0.013542,-0.006366,-0.003666,0.13558601477721344,0.017404332307959916,-0.5501933593160222,-0.8237722920675944
315,7.859912157058716,0.6636,-0.0411,0.1255,-9.57,-1.498,1.275,0.011441,-0.008964,-0.002348,0.12398203609281097,0.006603599627486682,-0.5731967662848922,-0.8099569830051366
316,7.88364052772522,0.6628,-0.0425,0.1263,-9.599,-1.495,1.258,0.010488,-0.008674,-0.000825,0.10823281397590918,-0.008500314386159835,-0.599838060816264,-0.7927217061682977
317,7.909829139709473,0.6628,-0.0417,0.1244,-9.604,-1.505,1.307,0.00712,-0.009049,-0.000133,0.09616212813672825,-0.019949859912476366,-0.6196576804913196,-0.7787035425691894
318,7.937308311462402,0.6638,-0.0425,0.1263,-9.612,-1.5,1.266,0.004449,-0.010392,-0.003119,0.08069589312997154,-0.03905684258296377,-0.6419143544224272,-0.7615173651768187
319,7.977410316467285,0.6635,-0.0422,0.1253,-9.593,-1.522,1.262,0.008112,-0.009007,-0.002254,0.07073479941944558,-0.053351931249572396,-0.6593420332562929,-0.7466044754516873
320,7.983404159545898,0.6633,-0.0436,0.1247,-9.584,-1.516,1.242,0.010114,-0.010189,-0.001881,0.05868624848427656,-0.07078155593691787,-0.6804508230790858,-0.7270024573197711
321,8.020829200744629,0.6636,-0.0417,0.1258,-9.58,-1.514,1.277,0.010275,-0.01045,-0.001808,0.050070640905028184,-0.08868789733702005,-0.6990389208939985,-0.7077937375116088
322,8.034533500671387,0.663,-0.0438,0.1236,-9.585,-1.463,1.269,0.011937,-0.010606,-0.004891,0.045996562160096136,-0.10256452299253135,-0.7151488241843976,-0.6898746220585599
323,8.06001091003418,0.6638,-0.0411,0.1261,-9.591,-1.515,1.313,0.011271,-0.008425,-0.00591,0.04632128484042144,-0.1152666760735167,-0.7276708126815958,-0.6745836644397797
324,8.083812236785889,0.6641,-0.0411,0.1263,-9.591,-1.5,1.339,-0.001595,-0.00743,-0.00596,0.04938537253830207,-0.12470142451158664,-0.7342728212839209,-0.6654728120876052
325,8.119395017623901,0.6643,-0.0419,0.1253,-9.599,-1.462,1.244,-0.003891,-0.010309,-0.006896,0.04920997765537074,-0.13686236221116063,-0.7378417322766812,-0.6591180850349088
326,8.135297060012817,0.6638,-0.0409,0.1269,-9.59,-1.446,1.253,0.006411,-0.009932,-0.003909,0.045804737655927616,-0.1500476328812107,-0.7454731742883184,-0.6478096790659396
327,8.160901546478271,0.6643,-0.0419,0.1234,-9.607,-1.463,1.302,0.020046,-0.010764,-0.005569,0.04438092722430481,-0.16389740465721472,-0.7593715998711426,-0.6281104579247837
328,8.18565559387207,0.6628,-0.0422,0.1242,-9.604,-1.524,1.298,0.026787,-0.012478,-0.00792,0.04708806200888768,-0.1826797616350319,-0.7773189418185744,-0.6001550481294536
329,8.227245092391968,0.6649,-0.04,0.1226,-9.578,-1.506,1.255,0.016856,-0.011204,-0.008323,0.053855571036172195,-0.19487134315159826,-0.7879565160915628,-0.5815920097761886
330,8.233551979064941,0.6636,-0.0419,0.126,-9.616,-1.517,1.275,0.01369,-0.016285,-0.005699,0.05784825995997697,-0.20913000170464535,-0.7976595214107755,-0.5627232971091127
331,8.28125286102295,0.6651,-0.0417,0.1231,-9.646,-1.599,1.224,0.025871,-0.029927,0.000355,0.05640399738960253,-0.2523320709173262,-0.8186118881303794,-0.512856404538992
332,8.284405946731567,0.6645,-0.0438,0.1239,-9.7,-1.809,1.265,0.02266,-0.043633,0.017622,0.053255060938656465,-0.35091742256736125,-0.8422634370665015,-0.4057254781302545
333,8.310711145401001,0.6651,-0.0411,0.1226,-9.686,-2.013,1.287,-0.051897,-0.05712,0.044713,0.07661136468058283,-0.5209300747027674,-0.8115183132143654,-0.2533783404114464
334,8.333823204040527,0.6656,-0.0422,0.1213,-9.566,-1.906,1.198,-0.18403,-0.061901,0.060639,0.13523683853518523,-0.7135078622941712,-0.6724933518583828,-0.14272427843113344
335,8.359622240066528,0.6666,-0.0454,0.1202,-9.424,-1.549,1.023,-0.260244,-0.054171,0.060495,0.18637175143133744,-0.8605639396288692,-0.4587647307808377,-0.11929039303498448
336,8.401346445083618,0.6663,-0.0471,0.1221,-9.486,-1.397,0.951,-0.205081,-0.035386,0.051731,0.2152632567457581,-0.9351461606942569,-0.24658508034673848,-0.13549607590035012
337,8.41006064414978,0.666,-0.0481,0.1197,-9.534,-1.382,1.111,-0.105684,-0.02543,0.043499,0.2612725407120166,-0.9488095502795835,-0.08342170302851189,-0.15664583056042372
338,8.43648624420166,0.6662,-0.0503,0.121,-9.461,-1.395,1.265,-0.049808,-0.022078,0.036748,0.32997181271922543,-0.9235354978492855,0.044669290959518305,-0.19027727522811227
339,8.476800441741943,0.6673,-0.0503,0.1186,-9.533,-1.475,1.182,-0.032682,-0.030707,0.032205,0.40755018554621836,-0.8636795312470757,0.1538962665388478,-0.25352801168998773
340,8.483700037002563,0.6659,-0.0511,0.1175,-9.461,-1.575,1.148,-0.048304,-0.038588,0.019742,0.46024990517796016,-0.7824812068221504,0.2391017583200106,-0.34456281709161396
341,8.509597063064575,0.6659,-0.0519,0.1186,-9.559,-1.495,1.106,-0.075976,-0.054424,-0.001109,0.4642731471189004,-0.6878105467990788,0.29625828018271794,-0.47286163726764974
342,8.53463888168335,0.6688,-0.0524,0.1176,-9.612,-1.344,1.047,-0.045124,-0.047431,-0.008183,0.4358067591383827,-0.6321727672144333,0.31870700217074943,-0.5557480614892683
343,8.560455799102783,0.6672,-0.0538,0.1189,-9.625,-1.161,1.127,0.019909,-0.027708,0.004103,0.42209509847208104,-0.5782300798444893,0.31074968082906684,-0.6252362261365801
344,8.597864866256714,0.6667,-0.0541,0.1194,-9.481,-1.077,1.291,0.09235,-0.024365,0.012393,0.4318242375841433,-0.49865821855581494,0.26455231384598976,-0.7034769947484759
345,8.608680725097656,0.6667,-0.0532,0.1173,-9.572,-1.181,1.34,0.132146,-0.037836,0.018928,0.4315778521786471,-0.39401654596406954,0.16418926249248134,-0.79469076067209
346,8.633869886398315,0.6675,-0.0522,0.117,-9.581,-1.302,1.545,0.124613,-0.062737,0.02138,0.36289217042067823,-0.2828035122491335,-0.017557359695650088,-0.8877067000014369
347,8.65915036201477,0.6669,-0.054,0.1146,-9.508,-1.279,1.425,0.065276,-0.062501,0.022891,0.24198416436057923,-0.24514768777584017,-0.21031831030393586,-0.9149385136323471
348,8.684388160705566,0.6669,-0.0549,0.1173,-9.554,-1.297,1.701,0.074973,-0.064393,0.019879,0.12647868594492429,-0.27963526135854133,-0.38013142439507946,-0.8725292905077477
349,8.709113836288452,0.6688,-0.0535,0.1152,-9.424,-1.447,1.969,0.066523,-0.04044,0.006455,0.07474672841711213,-0.34634049061356265,-0.5043946610853743,-0.7874307696687154
350,8.73738980293274,0.6684,-0.0559,0.1168,-9.65,-1.955,1.124,-0.119295,-0.027962,0.01179,0.03680654354702395,-0.3921689619984611,-0.5086175916031124,-0.7656088616970288
351,8.763077020645142,0.6697,-0.057,0.1157,-9.762,-1.685,1.228,-0.172094,-0.104883,0.014275,-0.058884569836566675,-0.5120004465847052,-0.46420729805168814,-0.7203469542989516
352,8.783535718917847,0.6692,-0.0589,0.1157,-9.382,-1.51,1.538,-0.159073,-0.14702,-0.005428,-0.10723172513575535,-0.6841556414602361,-0.3625040802427652,-0.6237172493926151
353,8.828099250793457,0.6692,-0.0578,0.113,-9.337,-1.441,1.716,-0.145125,-0.157409,-0.005523,-0.08290281387060316,-0.7936241183725697,-0.20000992215163382,-0.568580612781156
354,8.833178758621216,0.6699,-0.06,0.1117,-9.467,-0.91,1.577,-0.153511,-0.14744,0.000774,-0.06783083715149262,-0.8116919522370759,-0.015283125450367321,-0.5799323911296562
355,8.870443344116211,0.6709,-0.0602,0.1085,-9.656,-0.862,1.51,-0.067396,-0.121258,-0.003406,-0.0761468315586756,-0.7696656183118686,0.09679060296352299,-0.6264567624426616
356,8.883770942687988,0.6697,-0.0592,0.1109,-9.561,-1.094,1.968,0.021077,-0.113906,-0.038698,-0.08367383995700534,-0.7165077004276614,0.10133796506039085,-0.6850883304889472
357,8.93732237815857,0.671,-0.0578,0.108,-9.65,-1.232,2.343,0.101638,-0.074066,-0.050826,-0.06832430104165188,-0.6848383106692316,0.034387411711654325,-0.7246694308735921
358,8.938519477844238,0.672,-0.0575,0.107,-9.67,-1.54,2.829,0.016889,-0.107168,-0.055556,-0.08416862467998246,-0.6509466394517518,-0.03605591554305568,-0.7535808424849342
359,8.959632635116577,0.6726,-0.057,0.1062,-9.67,-1.19,2.594,-0.118919,-0.165337,-0.033109,-0.20082668716906943,-0.6356372668014623,-0.08041530178084044,-0.7410582203938905
360,8.983365297317505,0.6728,-0.0567,0.1051,-9.636,-0.753,2.351,-0.207205,-0.136183,-0.00238,-0.3646480249968985,-0.672671373496623,-0.060887602150177134,-0.6409662557798418
361,9.008602142333984,0.6721,-0.0567,0.1035,-9.509,-0.949,2.168,-0.243793,-0.085556,0.008881,-0.4910032271793042,-0.6929341413627668,0.02104849065180342,-0.5275557484045024
362,9.037343978881836,0.6733,-0.0586,0.0995,-9.615,-0.875,1.965,-0.252875,-0.120794,0.000549,-0.594419482527993,-0.6991963163903878,0.11086872160043021,-0.38144215355405064
363,9.084325313568115,0.6736,-0.058,0.099,-9.52,-1.476,2.076,-0.205532,-0.093859,-0.002354,-0.6448481352685327,-0.6972219482229636,0.19915442819008133,-0.24164012723294337
364,9.08601713180542,0.6731,-0.0583,0.0995,-9.538,-1.842,1.999,-0.257845,-0.083663,-0.035802,-0.717138749129518,-0.6428499469357726,0.24722989587548955,-0.10645815519263557
365,9.108702659606934,0.6728,-0.0586,0.0966,-9.387,-1.76,1.695,-0.30175,-0.060695,-0.054229,-0.8271187071351902,-0.513796271312925,0.2277353296757133,-0.004965431445592791
366,9.133060932159424,0.6736,-0.0578,0.0956,-9.414,-1.568,1.581,-0.258514,-0.028511,-0.058404,-0.9360576412590481,-0.3123476206288701,0.16102450904365445,0.01749753169108504
367,9.160647869110107,0.6741,-0.0589,0.0972,-9.528,-1.558,1.844,-0.185794,-0.023809,-0.05453,-0.9881858679982672,-0.10913677005775439,0.10550419463015825,-0.02113576649458209
368,9.183912754058838,0.6736,-0.058,0.0945,-9.579,-1.829,1.712,-0.198411,-0.026617,-0.06027,-0.9908588839085278,0.08501955485856937,0.0736905753306604,-0.0744314891603922
369,9.209658861160278,0.6731,-0.0561,0.0937,-9.464,-1.618,1.72,-0.162445,-0.012231,-0.085666,-0.9224059833881472,0.32582175970838284,0.08697256891879902,-0.1882635253200747
370,9.233087539672852,0.6737,-0.0545,0.0945,-9.226,-1.563,1.923,-0.151788,0.025054,-0.093483,-0.7155035188349197,0.5629905482956686,0.2380611651099419,-0.33826504213572983
371,9.271315574645996,0.6737,-0.054,0.0942,-9.406,-1.408,2.099,-0.132334,0.038525,-0.093457,-0.38419657850416006,0.6697975924585552,0.5172082720874748,-0.3691338205674314
372,9.282857894897461,0.6726,-0.0532,0.0961,-9.554,-1.379,2.134,-0.084006,0.057695,-0.104764,-0.0482969303567673,0.5500241226207881,0.8089885349651212,-0.2016889222251255
373,9.30967378616333,0.6732,-0.0491,0.0961,-9.392,-1.504,1.892,-0.010011,0.081919,-0.136095,0.13103429190035534,0.1613656197522417,0.9599991594163144,0.18759734813721912
374,9.334655046463013,0.6722,-0.0489,0.0972,-9.318,-1.354,1.821,0.065075,0.095877,-0.164458,-0.07700180321221821,-0.30781061533094567,0.7321886120533305,0.6026800011374767
375,9.359358787536621,0.6726,-0.0451,0.0998,-9.43,-1.473,1.96,0.076933,0.114936,-0.199091,-0.6365788354130195,-0.41282394183685256,0.14269301290618064,0.6355961637850274
376,9.38437533378601,0.6718,-0.043,0.1006,-9.258,-1.458,2.034,0.065272,0.113921,-0.225953,-0.9631713972754302,0.12471919023192998,-0.23696743450157315,0.024339639359066592
377,9.409569263458252,0.6717,-0.0378,0.1033,-9.415,-1.062,1.947,0.017088,0.122009,-0.229955,-0.46600093510481166,0.6619047567900811,0.18108475480869884,-0.5585101010688865
378,9.434340953826904,0.672,-0.0335,0.1047,-9.545,-1.11,2.01,0.052658,0.142754,-0.237075,0.2917926916249035,0.3233885435526911,0.8620014773360387,-0.25928811789908535
379,9.460603713989258,0.6729,-0.03,0.1063,-9.527,-1.323,1.918,0.06019,0.146537,-0.273191,0.16009593923779603,-0.5280974945563123,0.6290293987168253,0.5475439179032698
380,9.493050813674927,0.6711,-0.0279,0.1076,-9.338,-1.471,1.885,0.039029,0.143859,-0.319865,-0.698274212684982,-0.43539757988259653,-0.3755980866177387,0.42634275959682966
381,9.50955319404602,0.6721,-0.0201,0.1105,-9.871,-1.98,2.001,0.004379,0.126686,-0.343437,-0.5053809660066095,0.5440048452897437,-0.3775033395736521,-0.5532992283658527
382,9.53422999382019,0.6719,-0.0144,0.1108,-9.727,-1.991,2.089,-0.044927,0.121903,-0.320287,0.5509693329378264,0.4892746226285768,0.4731908590225098,-0.48283905056576504
383,9.575374126434326,0.672,-0.0114,0.1119,-9.551,-2.009,2.435,-0.103502,0.074198,-0.272755,0.7411642993739386,-0.33017096246518884,0.4707980906407438,0.34642715645194383
384,9.584054470062256,0.6723,-0.0098,0.1146,-9.996,-1.699,2.413,-0.404018,-0.047513,-0.167358,0.4472697039617233,-0.6603335751076915,-0.003666493365888257,0.6032378787260338
385,9.628638744354248,0.6725,-0.0096,0.1143,-10.848,-1.695,2.359,-0.603702,-0.108711,-0.029833,0.3117357993319101,-0.7821888086391547,-0.17808220862789848,0.5092034819448555
386,9.633660554885864,0.6743,-0.0104,0.1156,-11.841,-1.494,1.284,-0.677682,-0.096932,0.059919,0.27093132188287355,-0.8806551861427162,-0.04951127356706006,0.3854754152115335
387,9.66871166229248,0.6753,-0.0144,0.1146,-12.017,-1.099,1.13,-0.433947,0.030259,0.091895,0.08144931826717852,-0.9171982889506225,-0.007348287149947334,0.38994782981294307
388,9.685208320617676,0.6752,-0.0174,0.1159,-11.694,-1.553,1.935,-0.152549,0.164057,0.110534,-0.24042561809348803,-0.8329196319896124,-0.238390627434098,0.4377331579424047
389,9.716739892959595,0.6763,-0.0177,0.1178,-11.192,-2.058,1.806,-0.116791,0.161526,0.197884,-0.5271565781418266,-0.5577633202043146,-0.5135324780559263,0.38378433362788444
390,9.733710050582886,0.6759,-0.0249,0.1188,-10.892,-1.996,1.49,-0.25676,0.111386,0.365048,-0.5106784146821213,-0.3961902998512231,-0.5419304934035465,0.5371704975153995
391,9.759351253509521,0.6754,-0.0336,0.1246,-10.867,-1.932,1.266,-0.540841,0.108796,0.601694,-0.06844294274470915,-0.3218145058037579,-0.3845982029898299,0.8624588162339817
392,9.792976140975952,0.6751,-0.0473,0.1269,-10.658,-1.266,0.777,-0.691713,0.238563,0.876197,0.6481967215339632,-0.04696076426542195,-0.36411711965505156,0.6671239914636095
393,9.810312986373901,0.6729,-0.0657,0.1303,-10.174,0.189,0.118,-0.515432,0.490541,1.21352,0.5502734985456671,0.1547793293570332,-0.8201209515388397,-0.025378353948333987
394,9.84397006034851,0.6696,-0.0878,0.1379,-10.235,1.676,1.344,-0.318604,0.555235,1.691075,-0.4419930013748187,-0.4294591036394656,-0.6904814994607996,0.37873785649078195
395,9.858902931213379,0.667,-0.1121,0.1402,-10.825,2.946,4.236,0.382614,-0.187972,1.95792,-0.18523274887627098,0.27148540758438255,0.9441916117988662,-0.0220613331678089
396,9.884170770645142,0.6623,-0.1366,0.1419,-11.358,0.82,2.007,1.083749,-0.010101,2.135746,-0.7462724007912432,-0.41257985982432804,0.5217665855867071,-0.024799057437761146
397,9.912986278533936,0.6553,-0.1644,0.1455,-11.239,-1.249,0.358,1.411782,-0.018337,2.241131,0.8520233934507561,0.4580425943009264,-0.157275335471198,-0.1987903108080402
398,9.933679580688477,0.6475,-0.1873,0.1506,-11.552,-0.784,-0.382,0.955481,0.085769,2.282125,0.39510345195096735,0.7500003541934945,-0.31271074568100193,0.42849121403092233
399,9.960973262786865,0.6368,-0.2132,0.1518,-10.494,1.048,0.134,0.63418,0.079597,2.367643,0.3714331502197803,-0.0024035697988697285,0.3004294805821193,0.8785065537417409
400,9.986850500106812,0.6249,-0.2396,0.1529,-9.958,0.972,0.735,0.360204,-0.080907,2.310946,-0.329542158711819,-0.22890051274133516,-0.5093507784360918,-0.7612938364421818
401,10.00897741317749,0.6087,-0.2671,0.1539,-10.057,2.401,0.654,0.375776,-0.063743,2.40183,0.2641285367327084,-0.9591443969502453,-0.08970812532657264,0.047229166124130445
402,10.033914566040039,0.5949,-0.2927,0.1553,-9.287,1.868,1.053,0.481799,0.039347,2.365913,-0.6868697010505442,0.7041173945872587,-0.050668089424737425,0.17280466756553026
403,10.082395792007446,0.5793,-0.3167,0.1559,-9.391,2.033,1.925,0.227451,-0.166132,2.20495,-0.41862840522291517,0.847477121313726,0.2160216928880199,-0.24467818740564723
404,10.083463191986084,0.5626,-0.3353,0.1554,-9.325,3.062,0.812,0.538109,-0.310924,2.084002,0.06750072767045076,-0.032116264878520664,-0.8773981756885557,-0.47390361740823067
405,10.10891604423523,0.5448,-0.3552,0.1564,-8.54,3.244,0.706,0.49272,-0.288602,2.072401,0.989682603166434,0.001325878815179424,0.005796396354654214,-0.1431537244516455
406,10.135537147521973,0.5288,-0.3735,0.1581,-8.194,3.149,0.629,0.517249,-0.311619,2.023115,-0.042692376262194215,0.2748266277051985,0.8424267511075986,-0.4614811531704969
407,10.160915613174438,0.5129,-0.3881,0.1597,-7.85,2.789,1.244,0.599122,-0.446498,1.923151,-0.6950154762307457,-0.6639961735315341,0.27297754129494095,-0.03931706097611584
408,10.183738946914673,0.4976,-0.4008,0.1585,-6.954,2.657,0.931,0.631753,-0.445818,1.703537,-0.2647671713493921,-0.3696216747999266,-0.46148945214775927,0.7617779519322544
409,10.222394704818726,0.4826,-0.4102,0.1583,-6.081,2.564,0.282,0.522039,-0.376863,1.427494,-0.03689427193158759,0.6276351966204023,-0.05297976113521513,0.7758260227473442
410,10.233282804489136,0.4731,-0.4194,0.1629,-6.305,3.053,0.863,0.251405,-0.383178,1.160183,0.159151125453434,0.8743518285240381,0.4550589572236762,0.05568792215621517
411,10.281111717224121,0.4659,-0.4269,0.1572,-6.264,3.244,1.177,0.096922,-0.517227,0.856999,0.6585352476880372,0.2528955994703284,0.6699224673342579,-0.23147144765991978
412,10.283513069152832,0.4596,-0.431,0.1572,-6.126,3.737,1.361,0.111929,-0.488541,0.543275,0.801173759328036,-0.4600944250346778,0.3742423074608253,-0.07985250605077182
413,10.316855669021606,0.4569,-0.4331,0.1545,-6.122,4.57,0.132,0.192284,-0.326089,0.305573,0.7196565979633187,-0.6895005167384023,-0.0778803855832583,0.024860892315871554
414,10.334360361099243,0.4564,-0.4339,0.1516,-6.133,5.897,0.924,0.048501,-0.370433,0.211949,0.6312649249756512,-0.6522683148690618,-0.41830732300766127,0.03270509794396245
415,10.371577501296997,0.4568,-0.4382,0.1491,-6.018,5.665,1.673,-0.094444,-0.468585,0.045701,0.46540558061616955,-0.5278594376679228,-0.7095303115523047,-0.0364526622446113
416,10.383742809295654,0.4586,-0.4382,0.1457,-5.629,5.326,1.643,-0.187947,-0.538661,-0.135904,0.33781732838963474,-0.28136858642535,-0.8642977019491673,-0.24433717199410798
417,10.410345077514648,0.4625,-0.4379,0.1394,-5.782,6.513,1.268,-0.091173,-0.454103,-0.192953,0.4304348376632461,0.017761099692484905,-0.7686360708664104,-0.4728731166249303
418,10.441880226135254,0.4669,-0.4384,0.1341,-6.069,7.254,0.763,0.06519,-0.364728,-0.252841,0.6592305221414686,0.20730098532353333,-0.523074142140167,-0.49883350126601106
419,10.467702865600586,0.4696,-0.4352,0.1342,-6.044,7.385,1.125,0.171869,-0.294003,-0.312372,0.8601444293196903,0.30444414954743015,-0.23145334697983638,-0.33748284206530854
420,10.483989477157593,0.4728,-0.4317,0.1326,-7.212,8.445,1.502,0.156593,-0.358603,-0.176243,0.9706166140116947,0.2344131177110721,0.012515076924491187,-0.0528890508425106
421,10.509119749069214,0.4764,-0.4328,0.1318,-7.651,7.884,1.392,0.353344,-0.346184,-0.179195,0.9217776208166358,0.07863217053198435,0.1063059473331367,0.36447502668997206
422,10.534964323043823,0.4793,-0.4298,0.1292,-7.288,8.46,1.232,0.146876,-0.386471,-0.227157,0.6670668144222119,-0.11982328056401066,0.08758081887932426,0.7300642757291357
423,10.575342416763306,0.4833,-0.4266,0.1274,-7.506,5.952,0.134,0.087579,-0.210694,-0.491348,0.268112214484181,-0.41211453542516285,-0.0672589069806318,0.8681898925738892
424,10.584038972854614,0.4885,-0.4228,0.1283,-9.176,7.626,1.307,-0.409558,-0.250288,-0.687181,-0.44687441076986,-0.5225134548800716,-0.47019803347675004,0.5533504854818317
425,10.609524965286255,0.4946,-0.4179,0.1225,-10.265,7.048,1.35,0.00849,-0.141302,-0.661029,-0.826681761741032,-0.22565323677613797,-0.4776134263237144,-0.19381252934864007
426,10.636988162994385,0.5002,-0.4115,0.1231,-9.001,5.198,2.911,0.178126,-0.114182,-0.874494,-0.6480885020814475,-0.27887770839706694,-0.1225737830418261,-0.6979858056865065
427,10.661254644393921,0.5086,-0.4053,0.1227,-8.709,4.14,3.726,-0.073585,-0.142876,-1.10481,-0.2528868802118768,-0.6624430562821212,0.25396436848027965,-0.6578142006240967
428,10.691638231277466,0.5185,-0.3942,0.1197,-10.015,4.943,3.242,-0.257132,-0.222602,-1.229641,-0.6621394096569195,-0.6600674611951041,-0.23725350402903025,-0.263805086525227
429,10.70859980583191,0.5299,-0.3834,0.114,-11.279,4.589,2.189,-0.150777,-0.199826,-1.352531,-0.2848867858399269,0.6602755971250265,-0.30097314078688625,-0.6263312411335258
430,10.736517190933228,0.5424,-0.3705,0.1117,-10.588,4.199,1.969,-0.047256,-0.220731,-1.499197,0.5982318356062782,0.64497242240439,0.20708284051690007,0.4280723564637269
431,10.759921312332153,0.5538,-0.357,0.1077,-9.594,3.346,1.323,-0.119924,-0.196936,-1.573525,0.20275946513393353,0.8782862449522352,-0.12342750092028942,0.41505122966071967
432,10.793059349060059,0.5648,-0.3397,0.1065,-9.442,2.872,1.238,-0.050809,-0.058421,-1.555081,0.5780093092893988,-0.24060155694934265,0.5247802163529587,0.5767337806066906
433,10.808958530426025,0.5776,-0.3228,0.107,-9.279,1.972,1.533,-0.10059,-0.016404,-1.521869,-0.4911152471328798,-0.7241706774903752,-0.42827874941356003,-0.22574312104136926
434,10.840184450149536,0.588,-0.3095,0.106,-9.111,1.937,1.765,-0.296927,-0.025534,-1.464677,-0.09663736614399125,-0.7647436756977645,0.049550902517123074,-0.6351165546612393
435,10.85866641998291,0.5959,-0.2942,0.0993,-9.215,2.288,2.153,-0.46445,-0.037615,-1.436069,-0.07532330198362858,0.19732850833158513,0.13751773762760205,-0.9677172788659406
436,10.884152889251709,0.6048,-0.2793,0.101,-9.216,2.652,2.294,-0.401477,0.034132,-1.400783,0.05078726534587197,-0.536580816102206,-0.10124694128061561,0.8362121371704063
437,10.92906403541565,0.6121,-0.2626,0.0982,-8.765,2.735,2.457,-0.283014,0.027756,-1.376219,0.4477828011723476,0.847121473397598,-0.23370502709695765,0.16509915987835533
438,10.937509298324585,0.6184,-0.2483,0.0991,-8.469,1.88,2.497,-0.276776,-0.039973,-1.387479,0.5603136442210526,0.5982147096897089,-0.2972749316941592,0.48970950184452633
439,10.961069583892822,0.6265,-0.2324,0.0971,-8.458,1.878,2.549,-0.37973,-0.042533,-1.346891,0.14430480701282142,0.8346615805761687,-0.49857686971744364,-0.18422071969743098
440,10.985706090927124,0.6313,-0.2176,0.0975,-8.493,1.937,2.356,-0.522938,0.005394,-1.245554,-0.6098099708610427,0.15609217039603912,-0.7749523135671087,-0.05670930678904032
441,11.026845455169678,0.637,-0.2022,0.0958,-8.731,1.88,2.175,-0.44626,0.021603,-1.147312,-0.7515798308378933,-0.46364333852699674,-0.32115352664100477,0.3420862827464294
442,11.034618616104126,0.6414,-0.1909,0.0932,-8.195,1.203,2.623,-0.513533,0.005611,-1.020332,-0.46619311453165246,-0.5650182943931621,0.4307888129403458,0.5271046438893962
443,11.05933403968811,0.6448,-0.1804,0.0927,-8.639,1.192,2.622,-0.668469,-0.000249,-0.902429,-0.2231680091985745,-0.10021400018224946,0.8498256790844135,0.46685062815265904
444,11.085871934890747,0.6462,-0.1723,0.088,-8.558,1.561,2.267,-0.851704,0.02402,-0.782088,-0.13452205711218682,0.5851777202364231,0.7261522698308733,0.33492347321243215
445,11.131334781646729,0.6485,-0.1631,0.0875,-9.143,1.964,2.015,-0.735474,0.05524,-0.671094,-0.26778513678977917,0.8618899101862911,0.04658284613065386,0.42809688352044106
446,11.132927894592285,0.6512,-0.1583,0.086,-9.102,1.102,2.281,-0.57834,0.085766,-0.614823,0.013328189205937785,0.5266868166819578,-0.19940198435650747,0.8262337472777324
447,11.160625696182251,0.6516,-0.1507,0.0849,-9.221,0.875,2.257,-0.454244,0.09536,-0.581914,0.25392535486865997,-0.7370405253341645,-0.36067908307586877,-0.5120583728458254
448,11.183960437774658,0.651,-0.1448,0.0836,-9.213,0.638,2.583,-0.32819,0.084549,-0.556167,0.24875051665251707,-0.6335363123542261,-0.09175410655348415,-0.7268673230544115
449,11.235390186309814,0.6519,-0.1375,0.0844,-9.327,0.359,2.167,-0.254185,0.108919,-0.545249,-0.01880754681438268,-0.7017388332633101,-0.13362894362957795,-0.699537126604097
450,11.236427307128906,0.6533,-0.1313,0.0824,-9.32,0.446,1.884,-0.218771,0.104113,-0.491575,0.04244753732334133,-0.7222701608820759,0.0899303151728732,-0.684424254163652
451,11.27208948135376,0.6531,-0.1276,0.0861,-9.23,0.181,2.394,-0.159754,0.089628,-0.426966,-0.15438629465745968,-0.6892137358196634,0.008748430081786607,-0.7078649329854865
452,11.283858060836792,0.6522,-0.1216,0.0866,-9.403,-0.046,2.867,-0.054015,0.128366,-0.43817,-0.032206202765588665,-0.6779427979626218,0.18238224207162218,-0.7114021654247067
453,11.31279444694519,0.6532,-0.1138,0.0864,-9.39,-0.519,2.248,0.014531,0.137691,-0.493352,-0.17513358423886427,-0.7280981285144776,-0.0021471634955196883,-0.6627191958999583
454,11.333920001983643,0.6538,-0.109,0.0877,-9.413,-0.571,2.524,0.015875,0.168448,-0.54512,0.07835516216269639,-0.6703910043923671,0.17182568865897097,-0.7175739003817803
455,11.375740766525269,0.6526,-0.1033,0.0899,-9.183,-0.335,2.429,0.026251,0.183755,-0.572921,-0.1752624171327984,-0.6460115571259732,-0.15984275864616782,-0.725535971340379
456,11.383249521255493,0.652,-0.0952,0.0934,-9.431,-0.52,2.316,-0.024668,0.18206,-0.503277,0.2295835242456161,-0.7593653218530658,0.1823097156914284,-0.5808776815530636
457,11.424783945083618,0.6524,-0.0898,0.0918,-9.048,-0.377,2.311,-0.191062,0.150559,-0.417311,-0.28367931824164955,-0.6223376541567027,-0.25923191070026685,-0.6819242663928116
458,11.434878587722778,0.6517,-0.0855,0.096,-9.333,-0.919,2.278,-0.325082,0.125008,-0.408688,0.19518913395629114,-0.4852053087695632,0.40439985788866495,-0.7502917867515634
459,11.46055269241333,0.6512,-0.0834,0.096,-9.746,-1.242,2.522,-0.47674,0.10198,-0.455318,-0.49253903800527365,-0.8417000782764362,-0.022516165205701835,-0.22008929227636337
460,11.492302894592285,0.651,-0.0799,0.0974,-11.543,-2.362,2.81,-0.643103,0.113008,-0.581702,-0.05192834710020597,0.054970083561657064,0.6419074222652753,-0.7630442961725188
461,11.510146617889404,0.6506,-0.0742,0.0966,-11.308,-0.137,1.176,-0.471287,0.127334,-0.534882,-0.6906229528722211,-0.6325519566676533,-0.0056605272156030895,0.3505508772113095
462,11.535271167755127,0.6505,-0.0683,0.0971,-12.202,-0.758,2.362,-0.195923,0.036628,-0.408063,-0.4593925193834498,0.5577069711791791,0.005095653301997016,-0.6912998493780388
463,11.56099820137024,0.6503,-0.0651,0.0974,-14.038,-1.14,2.753,-0.658637,0.042725,-0.156698,0.42079420396017686,0.3858070840553903,0.7290147718948414,-0.37765406679302493
464,11.593689680099487,0.6466,-0.0686,0.0971,-13.728,-0.654,2.583,-0.7776,0.169421,0.031383,0.4320428052806721,-0.27251828387966504,0.7244706307882702,0.4628337762974256
465,11.610697031021118,0.6447,-0.0715,0.0987,-11.517,0.394,2.854,-0.649217,0.231149,0.295059,-0.06032266403674967,-0.366750649809609,0.2271679676493843,0.9001387957097434
466,11.636047601699829,0.6433,-0.0802,0.1002,-9.823,1.521,2.081,-0.419325,0.217821,0.72814,0.18412142245873353,0.1326286905421906,0.2998763739636264,0.9265975893424631
467,11.661198854446411,0.6386,-0.0939,0.1022,-9.519,1.266,1.128,-0.262223,0.217418,1.171116,0.11255942055706532,0.74001374143894,-0.09580784769206928,0.6561485316953873
468,11.686594486236572,0.6338,-0.1112,0.1053,-10.322,0.977,1.077,-0.152258,0.166286,1.435125,-0.30091725647673684,0.559865133162815,-0.6544058881403537,0.4095763310914487
469,11.7118501663208,0.6263,-0.1338,0.1086,-11.334,0.271,1.426,-0.103544,0.328704,1.744368,-0.29466081721179643,-0.7334140716953047,-0.20870977156058285,0.5759505477855891
470,11.736499547958374,0.6183,-0.1565,0.1114,-11.718,1.009,2.057,0.339477,0.100107,2.002571,0.019661596399789927,-0.7308553936804496,0.6165257240639321,-0.2921640750035003
471,11.77306079864502,0.6103,-0.1764,0.1136,-11.418,1.974,2.585,2.175076,0.048347,2.222971,0.2061226401685189,-0.8008562471789553,-0.3051172036368153,-0.47227769438038214
472,11.790520906448364,0.5989,-0.1913,0.1222,-10.513,1.439,0.598,1.885047,0.395833,2.471802,-0.796493443102842,0.40714255700622015,0.17298528054752776,0.4122004683191296
473,11.809005498886108,0.5813,-0.2115,0.1361,-10.573,1.014,0.397,1.414039,0.469964,2.675341,0.26292688701044464,0.5631089411119181,0.4669251140001116,-0.6290935625507497
474,11.839474201202393,0.5658,-0.2334,0.143,-10.367,-0.426,0.81,0.79849,0.352575,2.634642,0.3181610544059683,0.738792796755593,-0.41130152654932994,0.4287071275119208
475,11.866931438446045,0.5511,-0.2525,0.1489,-9.639,-0.608,0.616,0.179531,0.131942,2.555721,0.39272478478883033,-0.5352003175697434,0.3461735751275016,0.662941716419518
476,11.889554738998413,0.5379,-0.2759,0.1447,-9.263,0.665,1.628,-0.556964,-0.078024,2.334176,-0.4104993897058046,-0.5760121738172521,0.4105876027093053,-0.5754285769467062
477,11.925122499465942,0.5215,-0.2996,0.1394,-8.768,2.703,1.863,-0.696236,-0.161568,2.194479,0.6827306052749594,-0.22279951491277894,0.6552073637701172,0.23439839427123044
478,11.93558144569397,0.5105,-0.3188,0.132,-9.044,3.878,1.556,-0.34172,-0.351834,1.99443,0.7492071054622458,0.005097480827432631,-0.6623137367120626,-0.0018008266440848603
479,11.95932650566101,0.4984,-0.3355,0.1266,-9.138,4.955,0.052,0.145882,-0.456017,1.889973,-0.5301477209297863,-0.022251984465655218,-0.847613256837405,0.00010006888206780251
480,11.994245767593384,0.4873,-0.3452,0.1248,-8.084,4.729,0.605,0.590809,-0.348005,1.855742,-0.8709215571328436,-0.3230748489932834,0.3702689482264164,0.004380553455162528
481,12.008886814117432,0.473,-0.3578,0.1286,-8.099,3.744,1.094,0.99601,-0.277867,1.807682,-0.2027896607237683,0.21610224088897914,0.39120927489331064,-0.8712815149099347
482,12.033604383468628,0.4625,-0.3641,0.1362,-7.617,1.943,1.536,1.366736,-0.264299,1.623527,-0.5055048530326013,0.7669836706805766,-0.3947549677176937,-0.019219987826209123
483,12.058993101119995,0.4528,-0.3697,0.1448,-6.366,1.313,0.987,1.125515,-0.336707,1.343881,-0.579392278716328,0.3356019627980709,0.6643225342213349,0.33219193315871814
484,12.086255073547363,0.445,-0.3727,0.1479,-5.83,2.056,0.318,0.665827,-0.352653,1.070455,0.13249368433671985,0.05662038242853558,0.9682734210217265,-0.20417183460852395
485,12.109293222427368,0.4382,-0.3738,0.1484,-5.984,2.833,1.489,0.103877,-0.47787,0.851957,0.7403929788107275,-0.03566595819567525,0.6670396467467534,0.07486177944537709
486,12.133742809295654,0.4367,-0.3813,0.1438,-5.98,2.717,1.443,-0.26212,-0.607262,0.574186,0.614608880712244,-0.3195088686648766,-0.07700898657218185,0.7171050289750162
487,12.17744255065918,0.4356,-0.3851,0.1374,-5.937,3.702,0.619,-0.384243,-0.54587,0.329603,0.2751450255457206,-0.0804855974211363,-0.7839971326811802,0.5506049214027199
488,12.18357253074646,0.4361,-0.3864,0.1305,-6.171,5.472,1.266,-0.228101,-0.478042,0.191096,0.37023880891397337,0.25196146828019034,-0.8811029367333311,0.1519745299579914
489,12.21034026145935,0.4371,-0.388,0.1236,-6.02,6.815,0.611,-0.170205,-0.376877,0.074044,0.5661632817914903,0.3450403010399818,-0.7460361289325308,0.06193886773822102
490,12.234542608261108,0.4376,-0.3869,0.1212,-5.733,6.719,0.523,-0.241947,-0.385845,0.039038,0.7012857144864071,0.273208008952339,-0.6552467387145533,0.06486479712085785
491,12.258298397064209,0.4396,-0.3904,0.1157,-5.642,6.244,1.652,-0.074541,-0.346102,-0.015423,0.7257001767680997,0.22047036261465516,-0.6331532682713666,0.15449599193700148
492,12.305874347686768,0.4407,-0.388,0.1114,-5.663,6.382,1.504,-0.035681,-0.341375,-0.114354,0.7245896092015676,0.22693064016211084,-0.6082023135630537,0.23143536585682695
493,12.310665845870972,0.4431,-0.3847,0.1078,-6.138,6.671,1.511,0.064279,-0.353238,-0.183096,0.6976845198961366,0.2578550028941703,-0.5573006721116673,0.3690028035715022
494,12.333552122116089,0.4465,-0.3837,0.1075,-6.24,6.395,1.564,0.133537,-0.274284,-0.327353,0.6035945686266214,0.2397608457950998,-0.49305625491231125,0.5788642872383015
495,12.359363079071045,0.4511,-0.378,0.1073,-6.204,6.438,2.508,0.165176,-0.21513,-0.492556,0.3425195874391514,0.1277410409533849,-0.4613823618673177,0.8083865874904127
496,12.383569240570068,0.4551,-0.3718,0.1045,-7.764,9.725,2.706,-0.155635,-0.332813,-0.418108,-0.09312587169523429,0.06888724347860885,-0.6582174912518439,0.7438627923999495
497,12.409409523010254,0.4593,-0.3694,0.0987,-10.362,12.012,2.828,0.078692,-0.589056,-0.107592,-0.27340242591474184,0.5647003440564643,-0.7416894952101224,0.2371947040332032
498,12.434983968734741,0.463,-0.3645,0.0987,-9.526,6.544,-0.329,0.54805,-0.263707,-0.304861,-0.3680043568437548,0.824442856173591,-0.4244067673542088,0.06888879496911197
499,12.45976972579956,0.4683,-0.3589,0.1007,-8.272,3.745,2.016,0.176525,-0.07154,-0.978478,-0.41610393980684957,0.7309797465041209,-0.31098490914580607,-0.44250933070565124
500,12.484060287475586,0.4771,-0.3499,0.0976,-10.111,5.342,2.365,-0.155338,-0.048031,-1.15423,0.27750089772889563,0.24588632465918586,0.011543242076760822,-0.9286548985859127
501,12.5094153881073,0.4877,-0.3376,0.0983,-11.823,5.398,1.884,-0.124484,-0.01524,-1.218185,0.39264216986584444,-0.5596133720647285,-0.119134371255635,-0.7200499995381637
502,12.544562101364136,0.4981,-0.3284,0.0939,-10.416,3.846,3.281,-0.118036,-0.094177,-1.435784,-0.15016753702770147,-0.28828088937493673,-0.6372736017001502,-0.6987318485802315
503,12.558907270431519,0.5092,-0.316,0.0927,-9.765,2.643,3.613,-0.450181,-0.17216,-1.599755,0.30249813163305117,0.6930669218431672,0.36626565973845787,-0.5422200556063032
504,12.58437442779541,0.5217,-0.3014,0.086,-9.13,3.548,3.189,-0.419166,-0.323196,-1.75523,-0.09304291484578017,0.3749999530079855,0.23130075177316325,0.8928706588695694
505,12.609904050827026,0.5356,-0.2839,0.0814,-8.919,4.799,2.072,-0.160598,-0.316517,-1.734596,0.1046536072187026,0.18633090980850678,0.40456711426146275,0.8891871932299745
506,12.63620901107788,0.5476,-0.2701,0.0787,-8.994,4.111,1.72,0.096808,-0.237308,-1.632265,-0.5999326296232499,0.29059858942606187,-0.6435144823376939,-0.3761946447765642
507,12.677522897720337,0.5591,-0.2539,0.0773,-9.081,2.146,0.782,0.144666,-0.164983,-1.588492,0.7850535280798073,-0.4503748030498975,-0.021943727749816483,-0.4247022105424637
508,12.683927297592163,0.5669,-0.2386,0.0771,-9.624,1.759,1.106,-0.102374,-0.086193,-1.593537,0.762520812524574,-0.35897024653077125,-0.2858198294354989,-0.4560804728049241
509,12.72376298904419,0.5764,-0.2211,0.0757,-9.857,1.722,1.498,-0.378167,0.014988,-1.590177,-0.5254005079074768,-0.16217172244116235,-0.8292811813354282,-0.09973645779727922
510,12.733691692352295,0.5837,-0.2052,0.074,-9.261,1.953,1.923,-0.483612,0.066479,-1.584767,0.21357838434541757,-0.008921911819445086,0.7200275708814039,0.6602007046349707
511,12.773131608963013,0.5913,-0.1928,0.0749,-8.845,2.11,2.584,-0.561926,0.064214,-1.530962,-0.2690456249026135,0.7028263821045095,0.3115338854611379,0.5801690844470557
512,12.784064531326294,0.5953,-0.1755,0.075,-8.318,1.918,2.811,-0.63989,0.010888,-1.435995,0.2570292688308076,0.29669510333142973,0.38703943967836074,0.8343311349559677
513,12.809521675109863,0.6018,-0.1593,0.0724,-8.397,2.03,2.403,-0.662238,0.027234,-1.385588,0.7185200330643825,0.17497837448682121,0.6206230141954232,0.26065034969877887
514,12.843099117279053,0.606,-0.1472,0.0717,-8.501,1.885,2.338,-0.741387,0.053585,-1.305889,0.6115542575600285,-0.065883874776061,0.7722255197340095,-0.15914914946751554
515,12.86340618133545,0.6091,-0.1351,0.0726,-8.261,0.952,1.874,-0.836288,0.092088,-1.171264,0.2331723258928167,-0.1712072106484882,0.9325365551920405,-0.2160887102332296
516,12.884667158126831,0.612,-0.1205,0.0708,-8.592,1.2,2.433,-1.000821,0.087272,-1.102307,-0.1177131750335013,-0.06885758212298013,0.9811655961615832,0.1368075828183315
517,12.908203363418579,0.613,-0.1105,0.0701,-8.652,1.768,2.571,-1.039304,0.04908,-0.969312,-0.15978920625202936,0.2545888324741524,0.7743050971681538,0.5568694213585536
518,12.939539909362793,0.6158,-0.1024,0.0685,-8.814,2.312,2.175,-0.875574,0.119036,-0.807487,0.4497210189795926,-0.4918930268205717,-0.7453934694221005,-0.013447341601118629
519,12.95823860168457,0.6154,-0.0954,0.0675,-8.888,1.296,2.006,-0.610419,0.152276,-0.711011,0.618883937927245,-0.6521402015600946,-0.2915716203088993,-0.3266218289019704
520,12.983883619308472,0.6153,-0.0874,0.0691,-9.457,0.719,2.374,-0.563333,0.131123,-0.675653,0.39496595869146894,-0.4532735730833076,-0.14062801572602565,-0.7866185356398493
521,13.008288383483887,0.6163,-0.0779,0.0683,-9.37,0.514,2.523,-0.380787,0.154057,-0.690398,-0.09920877727073274,-0.5755650632909926,-0.2856964079497574,-0.7597763084723606
522,13.033306360244751,0.6159,-0.0714,0.0673,-8.994,0.62,2.39,-0.305317,0.102404,-0.672115,-0.04552768325921748,-0.9148044288195154,0.013387880023158596,-0.40109955340006775
523,13.070769548416138,0.6168,-0.0639,0.0708,-9.283,0.065,2.276,-0.198047,0.217232,-0.631251,0.14883161134263592,-0.4453127711653072,0.3547061541883408,-0.8085352382445347
524,13.085998773574829,0.6157,-0.0558,0.0724,-9.116,0.031,2.231,-0.105478,0.200821,-0.657366,-0.4761332091123372,-0.5132678000979495,-0.21034771972103045,-0.682354137798813
525,13.118746995925903,0.6149,-0.0464,0.0714,-9.237,0.152,2.512,0.151159,0.19326,-0.708441,0.13873707861787296,-0.9266539733775802,0.2939369914902678,-0.18885306900808257
526,13.14069128036499,0.6156,-0.0353,0.0751,-9.091,-0.868,2.883,0.271548,0.199901,-0.744891,0.14259823920299164,0.03965893543163219,0.037580253507354715,-0.9882715393873076
527,13.166340351104736,0.6135,-0.0256,0.0762,-9.336,-1.753,2.892,-0.012316,0.178649,-0.71355,-0.313139937268357,-0.7973580559927733,-0.5044504342208085,0.10813542271352522
528,13.184107542037964,0.6126,-0.0167,0.076,-9.663,-1.727,2.837,-0.37299,0.146158,-0.628676,0.5870937827008165,0.1766752284549909,0.521677235129147,-0.5932618446457112
529,13.208864688873291,0.6115,-0.0103,0.0773,-10.07,-1.236,2.836,-0.693173,0.12314,-0.579137,-0.5670108564040891,-0.48220122602364063,-0.5472825012485778,0.38270423327721326
530,13.235318660736084,0.6124,-0.0041,0.0797,-11.11,-1.233,2.333,-0.784723,0.090801,-0.519283,0.432505436946171,0.6956909145859314,0.2750723707082855,-0.5032776462823634
531,13.260099411010742,0.6124,-0.0017,0.0803,-12.201,-1.094,2.268,-0.954929,0.119411,-0.360955,0.41795428233993137,-0.5660648100162013,-0.06837041804763982,0.7072554946205973
532,13.283551216125488,0.6104,0.0013,0.084,-11.543,-0.76,1.816,-0.834006,0.192151,-0.299408,-0.28668218307656096,0.10199882224964361,-0.8991678897750469,-0.3144943118144302
533,13.310069561004639,0.6118,0.0029,0.0848,-13.318,-1.24,3.02,-0.819641,0.105187,-0.225822,0.5918616737321213,0.19747733288540292,0.09278637298790812,-0.7759466161735796
534,13.347224712371826,0.6131,0.0043,0.0874,-14.434,-1.1,3.386,-0.891813,0.067422,-0.117617,0.5603439419563534,-0.6287989513827182,0.4945536637979071,-0.2145768372329021
535,13.35830545425415,0.6136,0.0016,0.0877,-12.362,-0.18,2.584,-0.793769,0.134518,0.018433,-0.18685348707285326,-0.9336755183898336,0.22189351373231825,0.2099977840162032
536,13.38422417640686,0.6149,0.0018,0.0906,-9.803,0.937,2.436,-0.342091,0.081613,0.30109,-0.5042348972747912,-0.7780791042998813,0.01030960393556793,0.374478020568454
537,13.425553560256958,0.6162,-0.0074,0.0936,-9.071,1.282,2.144,-0.083763,0.154296,0.787279,0.1655010285216164,-0.6998754617155871,0.251541614401802,0.6476963515960362
538,13.433318376541138,0.6191,-0.0189,0.0943,-9.797,0.113,1.918,-0.225543,0.150118,1.324036,0.8068818425237545,0.5530819852137144,-0.014952135323098067,-0.20692617883391926
539,13.472485542297363,0.621,-0.0392,0.0948,-10.616,-1.03,1.158,-0.297968,0.030634,1.59527,0.695005393542907,0.11549500655504902,-0.7079807026904352,0.048905327164591006
540,13.483495712280273,0.6222,-0.0575,0.1003,-10.972,-0.195,0.295,-0.125252,0.216089,1.902724,0.08205142333436863,0.588498812410827,-0.477001747451813,-0.6476156612125491
541,13.529671669006348,0.6221,-0.0837,0.1021,-10.816,0.498,0.751,0.002325,0.037942,1.981153,0.07965992198712923,0.3882875234354244,0.8949516200985019,-0.20481380240710334
542,13.534054040908813,0.6219,-0.1063,0.1007,-10.404,0.179,0.556,0.347139,-0.016552,2.083464,-0.5448822051475242,0.20535182783552897,0.8126836688745946,0.02189209132784739
543,13.560431241989136,0.6204,-0.1281,0.1009,-10.06,0.307,0.713,0.696829,-0.102767,2.034765,0.48611154665910195,-0.4348965372498191,-0.5280850731821363,-0.543770835531872
544,13.584776639938354,0.6176,-0.1505,0.1005,-9.845,0.358,1.773,0.830669,-0.13251,2.004279,0.48013469505061923,-0.556518806502494,-0.6387853959521655,0.2273998912399115
545,13.612669229507446,0.6135,-0.1718,0.1015,-9.15,-0.232,1.703,0.912649,-0.142459,1.975544,0.4035195398898842,0.6356926273773309,0.27277352022013984,-0.5988835204711137
546,13.634805679321289,0.6095,-0.1909,0.1016,-9.296,-1.306,1.37,0.835232,-0.121469,1.872036,-0.5242775299966307,-0.8060390767351455,0.26153859126916235,-0.08385489606175808
547,13.660290241241455,0.6052,-0.2103,0.1036,-8.556,-0.751,0.879,0.567287,-0.108803,1.689206,0.010997149914497864,-0.2875317639648372,0.37210884861476257,-0.8824622100620644
548,13.696234703063965,0.5997,-0.226,0.1001,-8.204,0.407,1.419,0.401877,-0.288051,1.526244,-0.2026690494060309,-0.6581163641147487,-0.20389152167671223,0.6958709327781942
549,13.71301531791687,0.5931,-0.2432,0.097,-8.027,1.374,1.09,0.416187,-0.425072,1.445892,0.179868378338553,0.5542426970475958,0.454616096487778,0.6736368487972445
550,13.734716415405273,0.5902,-0.2556,0.0954,-7.362,1.666,0.789,0.517057,-0.388882,1.337161,-0.5364203309713819,0.22402969101291015,0.08323599652866392,0.809404531088808
551,13.761862993240356,0.5847,-0.2685,0.0934,-7.3,1.285,1.275,0.690579,-0.337556,1.178984,0.21391694740638634,-0.6121145456416608,0.3260997716527765,0.6879057068772172
552,13.793589115142822,0.5801,-0.2791,0.0939,-7.448,1.788,1.282,0.726965,-0.37094,0.959605,0.9208865088745282,-0.3174988991309608,0.02312765582676643,0.22500577405806765
553,13.81412124633789,0.5766,-0.2836,0.0938,-7.295,1.614,0.774,0.812139,-0.29849,0.799004,0.7662369797519291,0.3116755999627395,-0.4636403516594787,0.317453674670153
554,13.83390998840332,0.5747,-0.2898,0.0959,-7.386,1.298,0.762,0.759517,-0.226316,0.596046,0.15945650403961337,0.4808849488768524,-0.5268172615106782,0.6824857963632368
555,13.858536958694458,0.5733,-0.2942,0.0961,-7.605,1.149,1.096,0.571036,-0.24287,0.369055,-0.2931551047434404,0.25287632826574913,-0.3364743295831183,0.85842802417983
556,13.88426661491394,0.573,-0.2952,0.0966,-7.83,1.278,1.343,0.114414,-0.309278,0.141468,-0.5995596033607529,0.21799808120238365,-0.4026042907427483,0.6564410892726811
557,13.910017013549805,0.5735,-0.2966,0.0887,-7.904,1.548,1.13,-0.290735,-0.321134,-0.042211,-0.5590363035269887,0.7060442142995302,-0.427449784269053,0.07916224302898064
558,13.935326337814331,0.5776,-0.2982,0.0869,-8.012,2.214,0.899,-0.53439,-0.300404,-0.208536,0.21998721767903856,0.9552355882433037,0.14060894985782654,-0.1391392045082332
559,13.961991786956787,0.581,-0.2973,0.0784,-8.056,3.311,0.722,-0.603599,-0.18884,-0.329592,0.7293194549437414,0.3596972004516097,0.29891792003664513,0.4993587224719363
560,13.9844069480896,0.5826,-0.2963,0.0736,-8.134,4.092,0.904,-0.616998,-0.067938,-0.386499,0.5467912146439545,-0.015361743777913967,-0.32928331254250354,0.7696465971452914
561,14.026028394699097,0.5865,-0.2938,0.0673,-8.096,4.294,1.438,-0.52122,0.003032,-0.44084,0.47459697712820914,0.0362060098661893,-0.7844355072993401,0.39762767639886765
562,14.033493757247925,0.5892,-0.2895,0.0652,-7.972,5.065,1.148,-0.463992,-0.017237,-0.473631,0.6719831884971702,0.029023537223608814,-0.739722409669303,0.020173876604315875
563,14.059791803359985,0.5935,-0.2849,0.0618,-8.175,6.659,2.126,-0.295462,-0.012188,-0.459074,0.746814373545396,-0.2949597108210493,-0.595857582649516,0.014859396267542735
564,14.088825225830078,0.5958,-0.2825,0.0589,-8.815,7.31,3.827,-0.153719,-0.187755,-0.365611,0.4218768867211625,-0.45036173661724815,-0.7834013195680835,0.07400385895709405
565,14.11633849143982,0.5988,-0.2776,0.0558,-9.388,6.299,4.336,0.102619,-0.391167,-0.35897,0.2532852750121515,0.05816817543926947,-0.8991870459272364,-0.3520308072665449
566,14.137495756149292,0.603,-0.2738,0.0532,-9.214,6.841,3.408,0.885486,-0.363455,-0.324392,0.70691255896449,0.5208520870700648,-0.40416389261594693,-0.25620164964058956
567,14.15847897529602,0.606,-0.2706,0.0551,-8.657,5.224,2.866,1.152938,-0.275778,-0.346309,0.5884322795399488,0.784599311770534,0.11508537849353051,0.1578186554930206
568,14.1914963722229,0.6083,-0.2606,0.0581,-9.639,1.127,-0.564,0.603074,-0.080215,-0.683622,0.5022535393632122,0.3344358242511107,0.6800713156833577,0.4164097348037307
569,14.214057683944702,0.6145,-0.2496,0.0545,-13.419,2.311,2.415,-0.179023,-0.235695,-1.196033,-0.5199296419987727,-0.47414545361678684,-0.509006885831677,0.4957532111459268
570,14.233906030654907,0.6198,-0.2415,0.0514,-14.953,8.925,2.311,-0.457798,-0.098053,-0.664481,0.2561582311563502,0.27847292135580703,0.17630032421889424,-0.9087100683731446
571,14.260251522064209,0.6218,-0.2331,0.0543,-9.474,1.202,2.344,1.466309,0.127712,-0.463998,0.6930397253618157,-0.0006537659356089173,0.025232195354962413,-0.7204573880376893
572,14.284760236740112,0.6254,-0.2251,0.0586,-7.757,-5.228,1.028,0.352087,-0.136681,-0.738595,0.9487831993345006,-0.03331591715092838,-0.3083433955780738,-0.0602066502004984
573,14.308600425720215,0.63,-0.2156,0.0545,-9.123,-0.531,1.506,-0.933386,-0.050153,-1.086397,0.6720063659745728,-0.27871751365999786,-0.6281416019343711,-0.27597485318079173
574,14.334165096282959,0.6348,-0.207,0.0519,-9.785,2.857,1.991,-0.276934,0.112175,-0.96818,-0.0014541168131619042,-0.3406427592986607,-0.8084534203123607,-0.4799619393940878
575,14.359495401382446,0.6387,-0.1981,0.0536,-9.409,1.05,1.966,0.357273,0.106082,-0.870161,0.7556482037250738,0.22338619390953834,0.2698994876727686,-0.5533973862710739
576,14.383599042892456,0.6415,-0.1854,0.056,-8.369,-0.55,2.29,0.000587,-0.008958,-0.878385,-0.45914564873459124,-0.5451786891434778,-0.419157286802222,0.5623812221905089
577,14.40902042388916,0.6454,-0.1728,0.0529,-8.923,-0.698,2.738,-0.329437,-0.098259,-0.919947,0.3943148925372355,0.1978539117547768,0.8957482513686055,0.05481482734413218
578,14.448655605316162,0.6505,-0.1636,0.053,-9.61,0.508,2.319,-0.475143,-0.097462,-0.874018,-0.43069195201359095,0.8289163810296644,0.2782832951342309,-0.22351841843714243
579,14.457921743392944,0.6536,-0.1566,0.0523,-9.707,1.371,1.761,-0.42234,0.012062,-0.7873,-0.6721098900063928,0.32439845993387284,-0.009232176937266523,0.6655439142965136
580,14.492512226104736,0.6553,-0.1469,0.0526,-9.433,0.423,2.178,-0.264471,0.080002,-0.799066,-0.11906173011363966,0.506162116451156,0.43642861413571693,0.7342712584975737
581,14.50839376449585,0.6574,-0.1348,0.0518,-9.223,-0.081,2.26,-0.240202,0.06003,-0.842978,-0.221739099991841,0.6747398956575826,0.22786082295645593,0.666061025811006
582,14.536194324493408,0.6602,-0.1267,0.05,-9.696,-0.689,1.955,-0.2422,0.023572,-0.896034,-0.11335936935923813,0.544613069635354,0.1704558853712935,0.8133209999152373
583,14.567344427108765,0.6609,-0.1154,0.0538,-9.627,-1.153,1.932,-0.258047,0.036486,-0.974065,0.0022819276482144712,0.4267212234247072,0.15520716516117547,0.8909626962829369
584,14.583748817443848,0.6625,-0.1032,0.0531,-9.364,-0.979,2.096,-0.564325,-0.014836,-0.94687,0.0702571282475094,0.3442520847083442,-0.0765922395997849,0.9331066750042362
585,14.611449956893921,0.663,-0.0895,0.0547,-9.419,0.157,2.163,-0.671615,0.137293,-0.79816,-0.032076652763997765,-0.38905674516343547,-0.5295345890013115,-0.7531261889228815
586,14.634148597717285,0.6634,-0.0822,0.0545,-9.07,0.971,2.386,-0.577089,0.144734,-0.743126,-0.3337867290731845,-0.5913588887578287,-0.36239350932148184,-0.6383980173711317
587,14.664793014526367,0.6633,-0.0744,0.0566,-9.09,0.949,2.671,-0.408108,0.114883,-0.712035,-0.33975925395957207,-0.8717835163005551,-0.029647961598463585,-0.35167904178175113
588,14.683507442474365,0.663,-0.065,0.0561,-9.077,0.94,2.489,-0.23197,0.114821,-0.68883,-0.09618802339785476,-0.7916610720514311,0.4447869734500552,-0.4076581403606857
589,14.732158899307251,0.6627,-0.0558,0.0575,-9.198,0.573,2.489,-0.054938,0.124224,-0.663446,-0.21393113801605723,-0.4653170738875663,0.3991363837905295,-0.7605285241662452
590,14.733437538146973,0.6621,-0.0472,0.0548,-8.958,0.131,2.572,0.069299,0.131981,-0.658869,-0.3398402615293371,-0.6522784554425148,0.19803139204764594,-0.6479390256597224
591,14.760889530181885,0.662,-0.0404,0.0578,-9.061,-0.254,2.067,0.023986,0.05736,-0.653094,-0.26799700852682357,-0.6354027431982084,0.1474965827464402,-0.7090033254047458
592,14.783188819885254,0.6614,-0.0313,0.0597,-9.302,-0.722,1.858,-0.079057,0.061178,-0.628051,-0.013294179500341285,-0.7945886430687732,0.3653333677139645,-0.48475115629806564
593,14.828265190124512,0.6608,-0.0218,0.0592,-9.43,-1.2,1.961,-0.167635,0.076125,-0.656288,-0.45558042807356036,-0.2547021478589059,-0.06750410227826495,-0.8503037607866832
594,14.834023714065552,0.661,-0.0151,0.0603,-9.743,-1.976,1.838,-0.357828,0.091378,-0.647549,0.12416683256445407,-0.8299417986179365,0.543311233583284,0.024333352829932653
595,14.86136245727539,0.659,-0.0097,0.0616,-9.901,-1.636,2.469,-0.562779,0.119425,-0.64941,-0.5677025193358126,0.3293284922897643,-0.16497123162758487,-0.7362343963991357
596,14.888606071472168,0.6576,-0.0024,0.0605,-10.442,-0.978,2.53,-0.693204,0.084902,-0.551078,0.46639760359086585,-0.4671239236232372,0.6344885276223592,0.4021104620115478
597,14.932930707931519,0.6574,0.0027,0.0637,-11.306,-1.433,2.873,-0.687875,0.190495,-0.505521,-0.622032505560082,0.11110594008815557,-0.7650029747623339,-0.12450494250652745
598,14.933928966522217,0.656,0.0094,0.0675,-11.972,-1.407,2.204,-0.539235,0.219411,-0.52036,0.8410937469532149,0.08761742209950561,0.4474101831572968,-0.2910474603702849
599,14.963288068771362,0.6553,0.0121,0.0696,-12.306,-0.993,2.423,-0.37494,0.092456,-0.480946,0.08538244570189356,-0.8226957927128838,-0.4761799611287181,0.29855337083666544
600,14.996921300888062,0.6528,0.0172,0.0709,-13.744,-1.699,3.54,-0.67841,-0.105357,-0.341968,-0.23427856828526097,-0.49647511285958823,-0.7156318039458907,-0.4318531416285144
601,15.030419111251831,0.6528,0.0183,0.0693,-13.345,-0.307,2.339,-0.831307,-0.07972,-0.051467,-0.4375702316411795,-0.43090273504797394,-0.2722793748694091,-0.7407557406665062
602,15.033379793167114,0.6533,0.0156,0.0706,-11.448,1.839,2.322,-0.411834,0.1434,0.285249,-0.5918117239317662,-0.1277214863032782,-0.04306137883057685,-0.79472751494245
603,15.076193809509277,0.6524,0.0075,0.0717,-8.91,1.297,2.66,-0.228506,0.019585,0.648359,-0.802924068324543,0.012678683157830689,-0.3171880051185776,-0.5045234988654592
604,15.08389949798584,0.6521,-0.0027,0.074,-8.722,0.582,2.294,0.011819,0.03711,1.166237,0.06311065918327591,-0.6576684523400977,-0.04675004082245568,0.7492020322831029
605,15.111441135406494,0.6514,-0.0243,0.0777,-9.567,0.006,1.099,-0.053434,-0.019979,1.697868,0.19907946344843142,0.5672721352077067,-0.7887082701109278,0.12848718421929095
606,15.133928060531616,0.6523,-0.0469,0.0794,-11.386,-0.038,0.97,0.032603,0.001622,2.067919,0.8627986096420026,0.4490955954139342,-0.17677342143348826,0.15047545598644774
607,15.18044376373291,0.6501,-0.0742,0.083,-13.075,-0.407,0.659,0.165377,0.089134,2.247973,0.5606210581945936,-0.3622456164663761,0.6818098961468044,0.29936166751264737
608,15.183841466903687,0.6462,-0.1017,0.088,-11.846,-0.828,0.148,0.639396,0.305334,2.364013,-0.40256745862471843,-0.702039479839671,0.5736855912774221,-0.12635209679128634
609,15.226898193359375,0.6388,-0.1314,0.0942,-11.88,-0.866,-0.45,0.960256,0.112223,2.409353,0.5997191434659206,0.21471386674911033,-0.7492822952734881,0.18113792086650762
610,15.234033584594727,0.6328,-0.1562,0.098,-11.115,0.455,0.781,0.819488,-0.023852,2.545527,-0.04970035705061797,0.1320763559698317,-0.7589883380261847,0.6356275744829053
611,15.270819425582886,0.6252,-0.1847,0.1015,-10.175,0.419,2.868,0.795955,-0.235469,2.665009,-0.2547709473733184,0.2772229898141942,-0.07071174770433084,-0.9237093845087752
612,15.284648418426514,0.6153,-0.2101,0.1014,-11.065,-0.432,3.151,0.679175,-0.197683,2.946708,-0.15507200397022441,-0.14681552668982534,-0.3315842417489378,-0.918939478600865
613,15.317872047424316,0.6032,-0.2448,0.0992,-9.931,-0.691,1.66,0.172962,-0.507262,2.860029,0.006550305183036176,0.7645724697819303,0.4916320726033231,0.4167540487401762
614,15.334911584854126,0.5922,-0.2739,0.0966,-10.003,1.044,-0.181,-0.140373,-0.568005,2.623119,0.649283568289762,-0.19647576551867962,0.6767028831569186,0.2861840831350976
615,15.359833717346191,0.5812,-0.3025,0.0885,-9.589,3.222,0.658,-0.052569,-0.721919,2.588672,-0.034114322922389195,-0.8032241320725937,-0.22636595178047067,-0.5499324163043101
616,15.40060305595398,0.5684,-0.3281,0.0837,-9.522,3.992,0.555,0.38822,-0.733863,2.49466,-0.19645807727494544,-0.20101767285168798,-0.0038456077075977035,0.9596777221422214
617,15.40859866142273,0.5503,-0.3518,0.0819,-8.745,3.108,0.759,0.565567,-0.568984,2.278103,-0.5785973147117307,0.8144108152352035,-0.024225805075209682,0.037057817053405925
618,15.439160108566284,0.5382,-0.3712,0.0843,-7.881,2.327,0.948,0.75926,-0.467799,1.987286,-0.10761091613782384,-0.2425961577406686,-0.9290293409162207,-0.2578206327938389
619,15.460096597671509,0.5261,-0.3879,0.0844,-7.279,1.915,1.047,0.844473,-0.439824,1.678318,0.8682332399217717,0.24843892385423366,-0.36836147016457776,-0.22081433265819575
620,15.485509634017944,0.5145,-0.3968,0.0888,-6.959,2.374,1.728,0.914764,-0.45453,1.38258,0.13054133995352296,0.6605414112986291,0.19608374878178886,-0.7128780863418611
621,15.521366834640503,0.5044,-0.4074,0.094,-6.074,2.078,1.278,0.709286,-0.408084,1.063993,-0.2038973860907184,-0.15567770495635302,0.10971897764232097,-0.9602874851157954
622,15.534469604492188,0.4978,-0.4154,0.0944,-5.557,2.164,1.286,0.369322,-0.45749,0.799849,0.09973055391857544,-0.7590492793109629,-0.08576208288720387,-0.6376071465498567
623,15.560165882110596,0.4953,-0.42,0.0938,-4.847,2.734,1.139,0.233897,-0.50254,0.537546,0.13779899947737936,-0.919353804002533,-0.344800070095631,-0.13004972307218993
624,15.593346357345581,0.4932,-0.4227,0.0914,-4.654,3.704,1.34,0.174474,-0.421695,0.29978,-0.12594231627648728,-0.7552040041265976,-0.6303540049118662,0.12829370059998332
625,15.617057085037231,0.4942,-0.4238,0.0909,-4.714,4.505,1.275,0.056121,-0.359207,0.107659,-0.3820766632088942,-0.4376335537044853,-0.8114253846327294,0.063899462257265
626,15.633441686630249,0.4966,-0.4235,0.0901,-4.875,5.018,1.883,-0.028363,-0.33246,-0.06608,-0.45691767189148313,-0.029986154222928246,-0.8518780824189063,-0.25422589239192944
627,15.659278869628906,0.4983,-0.4254,0.0848,-5.098,5.82,1.986,0.028829,-0.271124,-0.23425,-0.2508757078139895,0.2698758498704538,-0.74901085381704,-0.55064611662101
628,15.702723979949951,0.5039,-0.4211,0.0854,-5.35,6.36,1.784,-0.087361,-0.3303,-0.36917,0.2232587928672043,0.41764314667713043,-0.47902792172518127,-0.739095368439525
629,15.708439111709595,0.5081,-0.4162,0.0834,-5.878,7.729,1.318,0.008234,-0.259232,-0.439651,0.7170735682063498,0.26051720941270257,-0.25469474007069226,-0.5941943038770684
630,15.735654354095459,0.5146,-0.4168,0.0808,-7.239,11.552,3.019,-0.209434,-0.360179,-0.106414,0.9214403585186427,-0.001033616355826203,-0.17426583170793047,-0.3472434552722441
631,15.763731479644775,0.5162,-0.4162,0.0755,-8.42,10.631,3.524,0.431086,-0.59075,0.132471,0.9655816934991298,-0.22322422776233533,-0.00532189901647355,0.13339645688743063
632,15.788783311843872,0.5193,-0.4157,0.0787,-6.88,6.53,1.253,0.850243,-0.129854,-0.240139,0.8921209095570866,0.11836181323401267,0.08491841385345708,0.4276676593893984
633,15.810157775878906,0.5233,-0.4098,0.0851,-6.298,5.858,0.369,0.313989,-0.192109,-0.490486,0.6761929746173118,0.39300014568832276,0.025857375577087727,0.6226117110169179
634,15.835933208465576,0.5325,-0.4073,0.0881,-7.283,6.391,1.509,0.116296,-0.248899,-0.746437,0.2580745336100285,0.5893814982171379,-0.10833305472530602,0.7578198558464752
635,15.860132694244385,0.5404,-0.3998,0.0843,-9.346,9.527,2.093,-0.399415,-0.335472,-0.830183,0.30620561773594557,0.8524863046208014,-0.1258440136800985,0.4045596424778447
636,15.899683475494385,0.5496,-0.3933,0.0817,-11.099,7.827,3.213,0.577338,-0.237702,-0.81832,0.5327604596500757,0.6280600032315318,0.45084957440437257,0.34415343414477845
637,15.909791946411133,0.5601,-0.3798,0.0856,-9.871,2.391,4.13,0.331359,-0.152634,-1.422859,0.6787373630577833,-0.1899540332878708,0.6817438797719362,0.19610797949228145
638,15.933628559112549,0.5754,-0.3645,0.0861,-9.794,2.141,3.303,-0.169146,-0.197181,-1.752831,0.4044824776164519,-0.8032829418438493,-0.41015697969233583,-0.15133305208581588
639,15.961578130722046,0.5885,-0.3491,0.0807,-10.839,3.726,2.764,-0.418701,-0.200497,-1.698351,0.7272546597532688,-0.6037135021934058,0.05938987209483308,-0.3210973531953968
640,15.984163284301758,0.6026,-0.3335,0.0748,-10.785,4.017,2.012,-0.225922,-0.201987,-1.676101,-0.5533420687448014,-0.4166343687383676,-0.45780098230146105,0.55735681421063
641,16.00867986679077,0.6165,-0.313,0.0731,-9.869,3.586,2.029,-0.21891,-0.196222,-1.720874,-0.40440432603388465,0.7969634722478001,0.3706362748077984,0.2528539435808895
642,16.033549785614014,0.6288,-0.2979,0.0712,-9.032,2.913,1.554,-0.208964,-0.084265,-1.682361,-0.6626130050661567,0.7328972405954705,0.032436549919181046,0.15084266794936624
643,16.060213088989258,0.639,-0.2803,0.0684,-9.265,2.676,1.522,-0.322713,0.051305,-1.576399,0.7402194217396335,-0.05877799369089559,0.6682153510413139,-0.04591949226471104
644,16.08475399017334,0.6469,-0.2631,0.0686,-9.497,2.139,2.357,-0.439361,0.142714,-1.490649,0.01320777756113184,-0.8046439133986465,-0.5061217936894318,-0.31018455344358997
645,16.127800226211548,0.6554,-0.2429,0.0666,-10.059,2.083,2.331,-0.676151,0.135437,-1.497977,-0.016506150111364998,-0.9105547451599401,-0.1826152352215778,-0.37049868952559833
646,16.133800745010376,0.6632,-0.2278,0.0665,-10.264,1.025,2.39,-0.692459,0.149564,-1.582641,0.3455927302093326,0.42811570798784676,0.41667861221254465,-0.7236446223977291
647,16.160298109054565,0.6672,-0.2108,0.0658,-9.705,1.731,2.603,-0.827383,0.190026,-1.568083,-0.24554551722383772,0.27863172838934713,-0.817001339451559,0.4411128769832068
648,16.194058895111084,0.673,-0.1933,0.0667,-9.608,2.588,2.217,-0.72667,0.281711,-1.523653,0.6330375638446145,0.31585570049152434,-0.6442694254841426,0.2905435021042754
649,16.215418100357056,0.6769,-0.1723,0.0684,-8.93,0.852,2.679,-0.580484,0.285593,-1.488959,-0.048627180953445856,-0.10782969678283622,-0.9655764618060294,0.23166840563700514
650,16.234920263290405,0.6811,-0.1561,0.0666,-8.401,0.158,2.867,-0.736206,0.256686,-1.477876,-0.47757761073818894,-0.5385169696763106,-0.421428359157459,0.5516495601286183
651,16.260573625564575,0.6835,-0.1394,0.0731,-7.932,0.56,2.688,-0.840261,0.237961,-1.426223,-0.868253780024532,0.13886332869146797,-0.21554107725285793,0.4247286115091783
652,16.28935217857361,0.6857,-0.1229,0.0718,-7.468,1.257,2.525,-1.058316,0.145477,-1.304562,-0.28506187060238986,0.9123689895912356,0.044629271246474256,0.2903976324093273
653,16.315325260162354,0.6882,-0.1043,0.0711,-8.596,2.171,2.636,-0.948862,0.140573,-1.127675,0.37068067159642704,0.738287483262947,-0.09148004297351467,0.5560205333435533
654,16.334981441497803,0.6889,-0.0949,0.0725,-8.362,2.168,2.204,-0.737407,0.281585,-1.016217,0.05212624237532562,-0.7075490677551453,-0.05702296690259215,-0.7024283257530831
655,16.35990595817566,0.6894,-0.0822,0.0741,-8.614,1.589,1.931,-0.520191,0.280693,-0.900219,-0.10513816124633898,-0.6320452746753488,0.26782115478419066,-0.7195391350443451
656,16.392770051956177,0.688,-0.0736,0.0776,-8.7,1.386,2.089,-0.288555,0.284051,-0.783943,-0.22831546667819497,-0.494091041934238,0.41626048898867385,-0.7283359769109085
657,16.422083377838135,0.6884,-0.0577,0.0792,-8.79,1.177,2.689,-0.121385,0.26771,-0.699555,-0.422370571682502,-0.43053708132812685,0.28244741226994274,-0.7459654020663876
658,16.435189485549927,0.6885,-0.0534,0.0835,-8.566,1.932,3.308,-0.003501,0.215935,-0.59353,-0.47046460739317936,-0.6957357061392704,0.2081528019241897,-0.5012856385778289
659,16.460732221603394,0.6876,-0.0464,0.0875,-9.229,1.978,3.253,0.074803,0.100213,-0.462013,-0.20778223603934307,-0.5766681742277342,0.41583600221290745,-0.6718338920320477
660,16.491464614868164,0.6885,-0.04,0.0889,-9.503,0.826,2.623,0.291114,0.084048,-0.417404,-0.2289433966700472,-0.721118228213942,0.17736158576353173,-0.6293777005536596
661,16.515165328979492,0.6881,-0.0319,0.0894,-9.392,-0.696,2.324,0.343136,0.038374,-0.477716,0.006738702487132375,-0.74193962563205,0.012729583390788238,-0.6703119717806483
662,16.533843994140625,0.6901,-0.0246,0.09,-9.459,-1.328,2.518,0.257057,0.057502,-0.520324,0.052334749480107884,-0.5678720205065937,-0.2906411989533546,-0.7683164294700263
663,16.560707330703735,0.6895,-0.0168,0.0911,-9.994,-2.32,2.067,0.092771,0.095938,-0.583062,0.5124939022048359,-0.7077241309092372,0.005209230010900651,-0.48626064888526455
664,16.58536696434021,0.6897,-0.0076,0.0916,-9.64,-2.289,2.229,-0.198742,0.099168,-0.632814,-0.14463861351017898,-0.3316577572254943,-0.589337036476149,-0.7223327910260743
665,16.61176609992981,0.6904,0.0018,0.0965,-9.93,-2.101,2.144,-0.533489,0.163287,-0.577631,0.5098772699912397,-0.7677492867970472,0.36082194728666106,-0.14280659832503462
666,16.645313024520874,0.6902,0.0058,0.0975,-9.67,-1.361,2.609,-0.691728,0.163575,-0.52066,-0.5786679701499848,0.03666871544002484,-0.4001763265635085,-0.7096884480450635
667,16.658568382263184,0.6898,0.0104,0.0999,-10.508,-1.476,2.978,-0.865827,0.004,-0.485657,0.537751160192887,-0.2430598394923576,0.8065664805349311,-0.03458491889028975
668,16.695981740951538,0.6899,0.0128,0.1031,-12.878,-0.538,2.913,-1.210517,-0.117295,-0.225064,-0.12498970563804662,-0.7016892231766725,-0.06103348411482423,0.6987737268809111
669,16.70821475982666,0.6916,0.0088,0.1007,-13.857,0.913,1.804,-1.243339,-0.113442,0.10761,-0.37691306524637064,-0.6023119029182371,-0.391558321874434,0.5846699867621686
670,16.74724292755127,0.6943,0.0007,0.1,-14.059,1.713,2.12,-0.65626,0.004286,0.287541,-0.2763433017990532,-0.5835566961210324,-0.2747511135297093,0.712465990470624
671,16.75810956954956,0.6952,-0.0071,0.0991,-11.962,1.436,2.45,-0.089374,0.048316,0.576392,0.3437778432048658,-0.3267127862566757,0.23667429943350915,0.8479745431352689
672,16.784391164779663,0.6957,-0.0176,0.1031,-10.429,1.49,2.23,-0.033107,-0.026935,1.021478,0.05110224871827819,0.9702585345356434,-0.23292508271638726,0.04162742098959572
673,16.809114694595337,0.6966,-0.037,0.1033,-9.419,1.145,1.686,-0.132356,-0.095133,1.472737,0.30787618695800556,0.6593727314570947,-0.2666873138853971,0.6319159209322084
674,16.8461012840271,0.6971,-0.0629,0.1027,-10.882,1.059,1.307,-0.024897,-0.082666,1.840267,0.7686793739405995,0.4183938815346023,0.18973624679555234,0.4450603741343803
675,16.862303733825684,0.6947,-0.0904,0.1023,-12.641,1.402,0.691,0.482899,0.207266,2.002436,0.7063052979925353,-0.093389758409964,0.6915800321441136,0.11886226563275393
676,16.88381290435791,0.6918,-0.1171,0.1064,-12.154,0.837,2.058,0.815708,-0.029234,2.125818,-0.049287012836928636,-0.9377670933181569,0.012829268645183377,0.3435099400617945
677,16.908525228500366,0.6839,-0.1495,0.1097,-11.519,0.328,1.886,0.561351,0.258253,2.573545,0.24556021512518877,-0.33818991415239846,-0.19939114973075228,0.8863243944077773
678,16.933336973190308,0.6748,-0.185,0.1129,-10.83,0.862,1.764,0.501462,0.003042,2.655696,0.4686166448705129,0.22867242267565852,0.6486363099814718,-0.5544170818360205
679,16.95824408531189,0.6635,-0.2168,0.1124,-10.883,0.629,2.59,0.770471,-0.184745,2.709703,-0.10434536267614664,-0.765506532245655,0.08699786218804502,-0.6289222259961283
680,16.984840631484985,0.6522,-0.2473,0.1125,-10.689,0.683,2.0,0.910307,-0.358979,2.713722,0.6141486571999989,-0.005350037751935044,0.729966881449726,0.2999019105341819
681,17.008758306503296,0.6352,-0.2767,0.1127,-9.768,1.346,0.397,0.827558,-0.222675,2.625939,-0.4941029412836592,0.6936895465028619,0.514052006794415,0.10201779647750425
682,17.033647537231445,0.6206,-0.3058,0.1133,-9.012,2.381,0.288,0.550758,-0.186478,2.444451,0.6257348894243684,-0.6550157013706187,-0.09962313674952333,0.4116861787080247
683,17.060635805130005,0.605,-0.3292,0.1109,-8.887,2.697,1.491,0.803798,-0.341857,2.267952,0.4005463867347786,-0.34390012089132493,-0.721968162212551,0.4472776225970587
684,17.083681344985962,0.5898,-0.3489,0.1136,-8.79,2.755,1.408,0.901573,-0.324124,2.171644,0.171526092070498,-0.49699528564560025,0.8502247385542483,-0.026313109573582363
685,17.125252962112427,0.5707,-0.3667,0.1152,-7.875,2.262,1.308,0.928884,-0.268286,1.972403,-0.3859902696274029,-0.878587442711978,-0.04741808671018519,-0.2772131712500994
686,17.140058994293213,0.5571,-0.3837,0.1203,-7.066,1.715,1.078,0.859394,-0.333693,1.755657,0.14680717113758088,-0.4280199812342117,0.27478629035089747,0.8483743541633249
687,17.161208868026733,0.5434,-0.3937,0.1226,-6.565,1.373,0.703,0.819003,-0.380624,1.531298,-0.5212378788620489,0.401441742198572,0.5962457304914212,0.46005068213265266
688,17.184974908828735,0.5331,-0.4026,0.1261,-6.167,2.265,0.917,0.583935,-0.316619,1.330231,-0.9608481343706863,0.20389006611201788,-0.16931897750622402,-0.08081328772828797
689,17.212074279785156,0.5217,-0.4144,0.1263,-6.008,2.381,1.242,0.426585,-0.451657,1.100439,-0.4547661045249294,0.21563226336177718,-0.8552492120468704,-0.12344756970433171
690,17.234790086746216,0.5148,-0.4196,0.1259,-5.72,2.048,1.247,0.166669,-0.447617,0.76808,0.1907918491266967,0.49521994869277836,-0.8440377291202951,0.07717502539677772
691,17.260348796844482,0.5101,-0.4239,0.1224,-5.552,3.046,1.031,0.084279,-0.314048,0.461633,0.49558791475399083,0.5079230598336277,-0.6025324414442594,0.3651868577129472
692,17.28536343574524,0.5092,-0.4274,0.1218,-5.739,4.578,1.079,-0.19733,-0.35868,0.290794,0.5516355584421845,0.3187022166580235,-0.5318518055695243,0.5579074875567438
693,17.31237006187439,0.5084,-0.4306,0.1131,-5.759,5.85,1.568,-0.22182,-0.310168,0.162357,0.41614737574558797,0.1605354613299422,-0.6691618296223891,0.5943670356707711
694,17.334471464157104,0.5094,-0.4314,0.1101,-5.474,5.551,2.396,-0.203248,-0.365318,-0.000672,0.23537410350547816,0.22975153078176924,-0.8380121001769553,0.4353722378143042
695,17.358988046646118,0.5117,-0.4322,0.107,-5.169,6.082,1.782,-0.171325,-0.343169,-0.173751,0.2774678102929546,0.4581390035011442,-0.824754512187189,0.1813842946593875
696,17.385498046875,0.5153,-0.4319,0.1012,-5.482,6.733,1.96,-0.222692,-0.382837,-0.316753,0.5302628984539104,0.5456043180592982,-0.6425509670787082,0.09091447269012223
697,17.411685943603516,0.5204,-0.4281,0.0965,-5.912,6.392,1.027,-0.045259,-0.315189,-0.562,0.6357405145227775,0.4119617327779463,-0.5691280689908572,0.3197104471355982
