,time,magX,magY,magZ,linear_accX,linear_accY,linear_accZ,angular_velX,angular_velY,angular_velZ,orientationX,orientationY,orientationZ,orientationW
0,0.0,0.7392,-0.0745,0.1164,-9.628,-0.607,1.192,-0.118214,-0.009957,0.044188,-0.37720889194980906,0.15424027548503708,0.3462972473796859,-0.8449861571111976
1,0.024292945861816406,0.7304,-0.0732,0.1072,-9.624,-0.625,1.236,-0.063187,-0.005952,0.031969,-0.5480968561854144,0.14483641068297562,0.21862918340823448,-0.794237704054892
2,0.0509953498840332,0.7383,-0.0786,0.1174,-9.687,-0.533,1.314,-0.019273,0.004909,0.024065,-0.6548094570835647,0.10361189190857321,0.13528690034262114,-0.7363332162579241
3,0.07729196548461914,0.7291,-0.0707,0.1003,-9.746,-0.514,1.333,0.013886,0.013532,0.025993,-0.7363590603913309,0.031773728067700124,0.06337153363466619,-0.6728668613545078
4,0.10063982009887695,0.7392,-0.0764,0.114,-9.738,-0.658,1.388,0.02892,0.018785,0.033268,-0.800614293040037,-0.0713923116364868,0.0022055034402792204,-0.5949075788505098
5,0.12768840789794922,0.7301,-0.0734,0.1048,-9.688,-0.795,1.386,0.018655,0.014635,0.037532,-0.8514974568006864,-0.21492348462953365,-0.04545821774309942,-0.4761234369953685
6,0.14957356452941895,0.7386,-0.078,0.1166,-9.713,-0.817,1.274,-0.026974,0.011532,0.032766,-0.8695762287468703,-0.3399679649177312,-0.04740806108060512,-0.35498090226467743
7,0.1789846420288086,0.7294,-0.0715,0.1046,-9.66,-0.674,1.224,-0.069487,0.009976,0.02849,-0.873800172940414,-0.41113064027791624,-0.01581371288492002,-0.259219561142222
8,0.19915318489074707,0.7381,-0.0794,0.1153,-9.649,-0.467,1.232,-0.089459,0.009978,0.028269,-0.8736121844601483,-0.4548976904372661,0.03297849107185031,-0.16965335694949532
9,0.2296462059020996,0.7311,-0.0764,0.1072,-9.695,-0.449,1.274,-0.0552,0.009333,0.031344,-0.8521778147733253,-0.508894937153433,0.09709845239281056,-0.0734221049186437
10,0.2508876323699951,0.7383,-0.0815,0.1184,-9.661,-0.429,1.305,-0.025408,0.006998,0.033933,-0.7933199374964579,-0.580950477215923,0.18106461822387832,0.018857990896395754
11,0.275799036026001,0.7291,-0.0748,0.1014,-9.695,-0.412,1.337,-0.004594,0.000425,0.034177,-0.6979381987742297,-0.6474196518356854,0.29147006039313406,0.09367640579765385
12,0.29993247985839844,0.7394,-0.0786,0.1153,-9.711,-0.464,1.341,-0.007241,-0.005554,0.034654,-0.5659082692327757,-0.6897947221383051,0.43012454827385593,0.13756433075588367
13,0.3293898105621338,0.7314,-0.0767,0.1048,-9.686,-0.493,1.303,-0.026141,-0.007949,0.036075,-0.43240019082106285,-0.6809880961300641,0.5738459417165883,0.1413722854114663
14,0.34958887100219727,0.7395,-0.0834,0.1179,-9.658,-0.481,1.242,-0.041895,-0.004169,0.036913,-0.3111287343339526,-0.6194278338022674,0.7130344687743286,0.10530866879081757
15,0.3775050640106201,0.7298,-0.0775,0.1014,-9.721,-0.438,1.228,-0.036833,0.002744,0.036693,-0.2201393613985545,-0.5173488330729457,0.8263041665576708,0.03332072644062234
16,0.4005460739135742,0.7403,-0.0818,0.1145,-9.697,-0.498,1.233,-0.025438,0.005079,0.035595,-0.1683292858444497,-0.3999871622168103,0.898737072947056,-0.06282670848770158
17,0.427811861038208,0.731,-0.0788,0.1062,-9.667,-0.402,1.237,-0.041972,-0.000767,0.036208,-0.14696242989596656,-0.2701774875467506,0.93595149763518,-0.1714670915845435
18,0.45118188858032227,0.7395,-0.0848,0.1174,-9.715,-0.311,1.144,-0.066023,-0.001371,0.039978,-0.17139655986556088,-0.10927785466509093,0.9364177456767137,-0.2860128936390599
19,0.4770948886871338,0.7305,-0.0799,0.1019,-9.71,-0.333,1.23,-0.011462,-0.012065,0.044706,-0.24941221116596557,0.050998422907239924,0.8751277042822823,-0.41151453313327885
20,0.49982309341430664,0.74,-0.084,0.1147,-9.708,-0.544,1.423,0.068085,-0.015229,0.045351,-0.3992110179198627,0.159213213462703,0.7128805988895722,-0.5541506722517907
21,0.5281953811645508,0.732,-0.0823,0.1054,-9.648,-0.591,1.299,0.035077,-0.008751,0.04423,-0.5826800539494742,0.1686666649101384,0.51410934655498,-0.6064050549445812
22,0.5495250225067139,0.7407,-0.0872,0.1163,-9.664,-0.485,1.248,0.021644,-0.007526,0.035415,-0.7327469309422083,0.11281196852024927,0.3595998389684819,-0.566606874973471
23,0.5757725238800049,0.7307,-0.0807,0.1014,-9.723,-0.48,1.217,-0.006131,-0.004647,0.028008,-0.8267923991005575,0.036251028747436936,0.26691258248619626,-0.4938196685176142
24,0.6011307239532471,0.7402,-0.0861,0.1129,-9.716,-0.458,1.231,-0.008954,0.000967,0.0225,-0.8767854243169263,-0.024177798285994603,0.22477358549162096,-0.4244285440927248
25,0.6265900135040283,0.7325,-0.0834,0.1046,-9.714,-0.415,1.281,0.010067,0.002659,0.020963,-0.9047954653474705,-0.08566339741518231,0.20054415640197332,-0.3657717725070701
26,0.6502976417541504,0.7415,-0.0883,0.1139,-9.679,-0.391,1.292,0.034252,0.007658,0.021691,-0.9196403834470619,-0.16741879028125026,0.1838757094317744,-0.3040102585030074
27,0.6761293411254883,0.7323,-0.0826,0.0998,-9.674,-0.467,1.269,0.03772,0.002822,0.016832,-0.9183698098905886,-0.24450936305694548,0.17733113964339,-0.25566722623712923
28,0.6999075412750244,0.7415,-0.0861,0.1118,-9.679,-0.468,1.281,0.022881,0.000522,0.017272,-0.9090964466486038,-0.31273293329692914,0.17890375018402427,-0.20912965187288274
29,0.7269582748413086,0.7338,-0.0831,0.1038,-9.666,-0.37,1.286,-0.00875,0.020069,0.02137,-0.8947135894855399,-0.3646609153145378,0.19783427326411482,-0.16544367607715918
30,0.7488727569580078,0.7418,-0.0886,0.1166,-9.759,-0.42,1.29,-0.035557,0.022044,0.017481,-0.8849791460535495,-0.38137704374636805,0.2310164810677968,-0.1341448732850556
31,0.7760918140411377,0.7331,-0.082,0.0987,-9.766,-0.371,1.389,-0.052206,0.00063,0.025485,-0.8729084424012817,-0.4019512188544251,0.26451638426591784,-0.08060490866501502
32,0.8030495643615723,0.741,-0.0875,0.11,-9.64,-0.247,1.478,-0.036893,-0.003639,0.036422,-0.8134443880786584,-0.46947674554186514,0.34231335358947207,0.026858534082948998
33,0.8244569301605225,0.7348,-0.0853,0.1043,-9.512,-0.244,1.448,-0.043023,-0.010699,0.029584,-0.7315302447785821,-0.5132472919155875,0.4366938054647158,0.1036302976172925
34,0.8493201732635498,0.7425,-0.0899,0.1131,-9.585,-0.174,1.433,-0.042947,-0.030239,0.015296,-0.6597186767919286,-0.5246073677210683,0.5142059822711521,0.15858935973525518
35,0.8755500316619873,0.7348,-0.0847,0.0995,-9.585,-0.177,1.1,-0.019072,-0.03197,0.005008,-0.6079968627152906,-0.5275440908429987,0.5603419101231956,0.19507432148923823
36,0.9003081321716309,0.7454,-0.0877,0.1103,-9.73,-0.129,1.094,0.044329,-0.02182,-0.005113,-0.5718352846201205,-0.5448696256232766,0.5794047136647841,0.2010265557572076
37,0.924532413482666,0.7379,-0.0847,0.1014,-9.764,-0.251,1.269,0.121866,-0.014526,-0.014102,-0.5522636634201826,-0.5888245298038041,0.5645498659315897,0.17197083486356735
38,0.9486703872680664,0.7472,-0.0902,0.1143,-9.699,-0.382,1.462,0.1062,-0.015085,-0.02082,-0.5547700669240914,-0.6425258246783575,0.5113670440382827,0.13377026477504123
39,0.9746284484863281,0.7379,-0.0845,0.0972,-9.736,-0.463,1.519,0.041486,-0.008964,-0.01545,-0.5847337494967851,-0.6663161797724342,0.448579472780416,0.11351496541401179
40,0.9995076656341553,0.7473,-0.085,0.1098,-9.781,-0.578,1.562,0.022224,-0.003439,-0.012509,-0.6228020212337197,-0.6698344865400176,0.3926749222475316,0.09615512688754188
41,1.0249848365783691,0.7411,-0.0834,0.1033,-9.723,-0.587,1.39,-0.022276,-0.010542,-0.010242,-0.6677645102665107,-0.654980146102342,0.34289528355781,0.086685590233272
42,1.0485544204711914,0.7503,-0.0875,0.1106,-9.657,-0.347,1.269,-0.054513,-0.011477,-0.010032,-0.7167041151497964,-0.6212507159854266,0.30412213815563693,0.08883965498911958
43,1.076671838760376,0.7424,-0.0826,0.0975,-9.682,-0.207,1.171,-0.045805,-0.007733,-0.01196,-0.7676646268321391,-0.5772342945169578,0.2648189723543905,0.0858050221452509
44,1.0987796783447266,0.7532,-0.0853,0.1053,-9.697,-0.261,1.26,-0.007495,-0.001886,-0.019964,-0.8221463663367983,-0.5248491172516989,0.2139791218613704,0.05311959945959868
45,1.1257107257843018,0.7462,-0.0842,0.0994,-9.673,-0.313,1.385,0.013583,-0.013981,-0.023703,-0.8688981905302644,-0.470380032599301,0.1540678801917506,-0.004652710858577533
46,1.1487982273101807,0.7561,-0.0864,0.1098,-9.716,-0.317,1.406,0.00961,-0.018402,-0.02492,-0.902998656774087,-0.4120723941944078,0.10288250543527917,-0.06484564659591889
47,1.1785297393798828,0.7474,-0.0801,0.093,-9.691,-0.275,1.357,0.007003,-0.018395,-0.029632,-0.929662914341641,-0.33430326329302656,0.05575241636398931,-0.1444294357775328
48,1.1979053020477295,0.7585,-0.0839,0.1035,-9.71,-0.19,1.33,0.016239,-0.015439,-0.03222,-0.9405013321625793,-0.23259563135333441,0.025652743707152544,-0.24637056077391317
49,1.225067377090454,0.7523,-0.0807,0.0968,-9.684,-0.284,1.426,0.057874,-0.003355,-0.043529,-0.9129710744438082,-0.10947270649849228,0.025916289753363554,-0.39220898725836606
50,1.2502622604370117,0.7611,-0.0826,0.1094,-9.704,-0.443,1.397,0.073571,0.003079,-0.063903,-0.7847286776292777,0.05944522544096093,0.1162222282346348,-0.6059369285186826
51,1.275702714920044,0.7527,-0.0742,0.0918,-9.728,-0.507,1.373,0.072364,0.003049,-0.079783,-0.4909730546365725,0.1818053535125146,0.36847263711554995,-0.7681928070166598
52,1.2998082637786865,0.762,-0.078,0.1049,-9.65,-0.501,1.33,0.059301,-0.000497,-0.090363,-0.10994333358334607,0.08052066224753993,0.7014474626758986,-0.6995715427726762
53,1.326970100402832,0.755,-0.0745,0.0977,-9.697,-0.546,1.336,0.043167,0.008116,-0.091025,0.11114347597806634,-0.27161343298987284,0.8817676704365843,-0.36926825769324906
54,1.3495187759399414,0.7638,-0.0761,0.1065,-9.684,-0.617,1.361,0.006765,0.017474,-0.091451,-0.017897950191964357,-0.6838582312686372,0.7285333735629544,0.035450056559018985
55,1.3809177875518799,0.7549,-0.0699,0.094,-9.582,-0.476,1.406,-0.020552,0.012551,-0.07695,-0.39602336844675196,-0.8294143358907784,0.34368087529062324,0.19266760761066767
56,1.400364637374878,0.7644,-0.0724,0.1047,-9.601,-0.373,1.434,-0.045529,0.015203,-0.051549,-0.7028460744930556,-0.7046831048118348,0.052037114852798855,0.0819832668308077
57,1.4245562553405762,0.7567,-0.071,0.0985,-9.671,-0.388,1.462,-0.018422,0.011547,-0.033916,-0.8407948644848519,-0.5308536132379568,-0.07571152996550402,-0.07433842477741873
58,1.4497745037078857,0.7649,-0.0732,0.1097,-9.664,-0.541,1.462,0.018596,0.006664,-0.024547,-0.8799656962509793,-0.4156653115386132,-0.12275530815485733,-0.19445785282380051
59,1.475275993347168,0.7567,-0.0664,0.0953,-9.689,-0.671,1.385,0.016988,0.0095,-0.018763,-0.8880378883135069,-0.31843246759562743,-0.1396143654713394,-0.3008276939623114
60,1.5143177509307861,0.7657,-0.071,0.1031,-9.716,-0.785,1.283,-0.015647,0.013839,-0.018209,-0.8776796956106467,-0.20865822727969585,-0.1272788174301131,-0.41223803649698476
61,1.5243065357208252,0.7577,-0.0686,0.0985,-9.719,-0.778,1.28,-0.028822,0.014811,-0.021054,-0.8424874160470512,-0.08302350856770148,-0.07823149178394279,-0.5264996529160589
62,1.5534555912017822,0.7652,-0.0726,0.1092,-9.687,-0.734,1.282,-0.048896,0.013526,-0.021848,-0.7710498618819344,0.04605538813170137,0.009790478200910356,-0.6350316198839911
63,1.5761375427246094,0.7549,-0.0672,0.0945,-9.671,-0.728,1.242,-0.080621,0.020782,-0.02271,-0.6604034325813873,0.1636073259321921,0.15158766797575693,-0.7170224041504631
64,1.6330997943878174,0.7634,-0.0705,0.1033,-9.681,-0.539,1.318,-0.097361,0.016764,-0.01919,-0.5251799492135074,0.24530617168802177,0.3256626852942023,-0.7469636661062128
65,1.633488416671753,0.7567,-0.0686,0.0985,-9.668,-0.599,1.35,-0.096856,0.013894,-0.016313,-0.40154380938785855,0.27883208901863077,0.4836934401821481,-0.7259861508324743
66,1.64959716796875,0.7642,-0.0713,0.1124,-9.668,-0.606,1.285,-0.099394,0.015532,-0.013149,-0.28945686536188275,0.27969124820659563,0.6294464579224499,-0.6646688539268188
67,1.6776504516601562,0.756,-0.0672,0.0956,-9.668,-0.555,1.419,-0.098558,0.006477,-0.007673,-0.21562791173068796,0.2675107588547681,0.7307903489905261,-0.589820365367214
68,1.699183464050293,0.7637,-0.0713,0.1052,-9.616,-0.387,1.325,-0.113754,-0.002158,0.0045,-0.19652447427188013,0.2864110832941662,0.7704285441668814,-0.5345901988545272
69,1.7235524654388428,0.7567,-0.0696,0.0996,-9.666,-0.486,1.345,-0.065876,-0.00555,0.01065,-0.22845540326603941,0.33527297079281776,0.7501409589807349,-0.5221960411892963
70,1.7493529319763184,0.7649,-0.0732,0.1092,-9.662,-0.727,1.301,-0.050102,-0.003419,0.009926,-0.26603977216848146,0.3728178881382486,0.7188765675179937,-0.5229207804077272
71,1.7744526863098145,0.7559,-0.0678,0.0974,-9.692,-0.661,1.367,-0.084426,-0.007139,0.006059,-0.28225117478131007,0.4055114964339386,0.7063358722574967,-0.506936224940297
72,1.8022377490997314,0.7637,-0.0702,0.1049,-9.67,-0.54,1.227,-0.108822,-0.003199,0.003477,-0.27103389065851463,0.43717917827842323,0.7198001771619167,-0.466157378094549
73,1.825639009475708,0.7577,-0.0694,0.1017,-9.657,-0.519,1.235,-0.07592,0.002462,0.000674,-0.25382319045393903,0.4610796189306297,0.7372317191008093,-0.4236375400578116
74,1.8521201610565186,0.7662,-0.0756,0.1087,-9.696,-0.625,1.27,-0.029883,0.001487,-0.00648,-0.2253343722692162,0.46143672128447144,0.7639104085576923,-0.39082152016169097
75,1.8755764961242676,0.7557,-0.0686,0.0964,-9.695,-0.55,1.301,-0.023189,0.003988,-0.012832,-0.17321020697388217,0.43506052820746394,0.8113425754788045,-0.3499196853726978
76,1.9009051322937012,0.765,-0.0716,0.1084,-9.665,-0.541,1.324,-0.019143,-0.000285,-0.011347,-0.12527061079974608,0.4018262991910809,0.8545628663607743,-0.3042453069243895
77,1.9265649318695068,0.7587,-0.071,0.1001,-9.677,-0.583,1.296,-0.01636,-0.00011,-0.010993,-0.08740373359478965,0.37060753740839025,0.8866929965814403,-0.26227117718728754
78,1.9490675926208496,0.7657,-0.0745,0.1092,-9.684,-0.6,1.309,-0.010882,-0.000703,-0.017357,-0.04609187956245261,0.3270526194801808,0.9202737463030806,-0.20978168317287757
79,1.9748954772949219,0.7554,-0.0691,0.0964,-9.676,-0.537,1.285,0.008706,0.00214,-0.022457,0.002936770521931798,0.24194747237738326,0.9618681507419432,-0.12752433719636128
80,1.9992640018463135,0.7639,-0.0726,0.1049,-9.709,-0.561,1.207,0.027076,0.009133,-0.032376,0.038358376304265064,0.10964960073257743,0.9931821696418511,-0.009735395831290896
81,2.0249667167663574,0.7562,-0.0683,0.1003,-9.672,-0.616,1.336,0.06461,0.013146,-0.039129,0.03169704794777971,-0.08408645879887804,0.9849232739794683,0.14782052960135805
82,2.049715280532837,0.7639,-0.0713,0.1126,-9.663,-0.613,1.348,0.061306,0.012095,-0.043127,-0.03786201280278982,-0.2841965754761489,0.9094957382303742,0.30102537536715623
83,2.0757884979248047,0.7544,-0.0651,0.0945,-9.685,-0.602,1.268,0.065946,0.014642,-0.042051,-0.1714842976986394,-0.4480207271268712,0.7698454781566606,0.42096140377623303
84,2.0986204147338867,0.763,-0.0678,0.1071,-9.69,-0.607,1.295,0.082772,0.015315,-0.04277,-0.343385418400883,-0.5556710909765981,0.5900534885053591,0.47450287015484327
85,2.12874698638916,0.7539,-0.0645,0.1009,-9.67,-0.614,1.326,0.088435,0.013991,-0.0428,-0.5327285627582885,-0.5969484192488018,0.38790385717118564,0.4575843755741244
86,2.1511380672454834,0.7619,-0.0686,0.1129,-9.71,-0.706,1.34,0.101382,0.007848,-0.042665,-0.6952165221096412,-0.5778443807289937,0.20435003043223354,0.3755142129241527
87,2.1754677295684814,0.7527,-0.0632,0.0998,-9.694,-0.743,1.383,0.111573,0.005067,-0.039587,-0.8102443802273008,-0.5240090376703682,0.05949703784668252,0.25569254044129297
88,2.1977391242980957,0.7612,-0.0645,0.1094,-9.653,-0.767,1.343,0.102135,0.007552,-0.035366,-0.8851248996496442,-0.44812471050086294,-0.04970448709433541,0.11518515451834054
89,2.2249679565429688,0.7538,-0.0602,0.1025,-9.668,-0.731,1.286,0.076847,0.013443,-0.03606,-0.9334201410735621,-0.3314665262352876,-0.12742956051067028,-0.051171176767595264
90,2.249345064163208,0.7617,-0.0664,0.1142,-9.692,-0.719,1.288,0.077684,0.014956,-0.035933,-0.9392172973283298,-0.1807897347131461,-0.15976627783389494,-0.24425535140242202
91,2.276066541671753,0.7515,-0.0575,0.0987,-9.682,-0.719,1.261,0.08733,0.016417,-0.035334,-0.8874348404787183,-0.03220276305259689,-0.13908376998207964,-0.43826714556747426
92,2.299842596054077,0.7598,-0.0594,0.1108,-9.649,-0.685,1.298,0.079966,0.013984,-0.036836,-0.7797363727781493,0.10039688875668387,-0.06607854963314656,-0.6144634073507819
93,2.324530839920044,0.7536,-0.0578,0.1046,-9.672,-0.673,1.29,0.068483,0.012902,-0.030598,-0.6622461388806403,0.17953979997642117,0.018853080393966562,-0.7272139115293167
94,2.3487563133239746,0.76,-0.06,0.1148,-9.668,-0.784,1.284,0.0744,0.008397,-0.027234,-0.5391573699616078,0.22443315575122783,0.10695293409803526,-0.8046739457093466
95,2.3750343322753906,0.7505,-0.0559,0.1003,-9.681,-0.864,1.335,0.06153,-5.5e-05,-0.026572,-0.4173656443282731,0.24670202902585114,0.1913682227234819,-0.8534179697783668
96,2.400440216064453,0.7588,-0.057,0.1102,-9.659,-0.842,1.32,0.019093,-0.00944,-0.024171,-0.31518739026085674,0.2607841618410669,0.26513694173149,-0.8731270996153281
97,2.4251465797424316,0.7523,-0.0554,0.1057,-9.648,-0.766,1.308,-0.003838,-0.011037,-0.017345,-0.25627749854495485,0.2722997443249737,0.311764215770095,-0.8734859854315652
98,2.4497313499450684,0.7606,-0.0576,0.1174,-9.695,-0.809,1.232,-0.002183,-0.008587,-0.016885,-0.19761072219209663,0.27872306417624526,0.36190984096483686,-0.867343486159739
99,2.4739437103271484,0.7508,-0.0532,0.103,-9.641,-0.814,1.22,-0.006325,-0.004006,-0.017943,-0.12839992061074124,0.27466130132047356,0.42358345371294537,-0.853610969754204
100,2.499591588973999,0.7599,-0.0551,0.1118,-9.649,-0.787,1.266,-0.019145,-0.001977,-0.017788,-0.037512566415833934,0.2522099755960918,0.5128588144805996,-0.8197309143739003
101,2.5241055488586426,0.7518,-0.0532,0.1051,-9.666,-0.771,1.319,-0.004006,-0.001868,-0.016796,0.03576924894336003,0.2243334326914313,0.583233300660519,-0.779893575308544
102,2.5490784645080566,0.7591,-0.0554,0.1153,-9.68,-0.857,1.277,-0.010903,-0.000166,-0.01581,0.1002091511540398,0.18852777490657133,0.6421282160721722,-0.7362654129033452
103,2.574925422668457,0.7493,-0.0516,0.1014,-9.678,-0.854,1.283,-0.011566,0.007808,-0.017722,0.17132461500921287,0.1273804943749801,0.713819208315576,-0.6669964196189174
104,2.599392890930176,0.7565,-0.0551,0.1094,-9.694,-0.896,1.228,-0.029291,0.010411,-0.018902,0.24264465927801354,0.032426930378742586,0.7903380298780048,-0.5616385510616438
105,2.625070571899414,0.7505,-0.054,0.1049,-9.691,-0.887,1.212,-0.030476,0.011927,-0.022177,0.2978007816117614,-0.10226479902822665,0.8545566433537433,-0.4130248765523981
106,2.6488230228424072,0.7583,-0.0554,0.1171,-9.705,-0.862,1.29,-0.030941,0.015987,-0.024378,0.3140501805211192,-0.2667532500495994,0.879855842583329,-0.23678869055469826
107,2.682893753051758,0.749,-0.0511,0.1035,-9.688,-0.868,1.225,-0.027473,0.01796,-0.020445,0.27895585572228326,-0.4338116621806061,0.8546795763780503,-0.05927810756582294
108,2.697885036468506,0.7568,-0.0527,0.1132,-9.645,-0.819,1.272,-0.019742,0.010392,-0.014639,0.21276290359606453,-0.5597146702632555,0.7974374587727727,0.0744643142148596
109,2.7235608100891113,0.7503,-0.0521,0.1096,-9.68,-0.905,1.241,-0.026036,0.007356,-0.004967,0.16447730045337455,-0.6175629910154702,0.7561262764019262,0.14084112999459497
110,2.748356342315674,0.7588,-0.0554,0.1179,-9.69,-0.874,1.287,-0.039206,0.011949,0.001229,0.1192255123710769,-0.6496994544392831,0.7273185127328455,0.1862355420891338
111,2.773970127105713,0.7472,-0.0511,0.1019,-9.684,-0.871,1.2,-0.057132,0.023453,0.011138,0.06853540839083072,-0.6716013990425458,0.7035975077913197,0.2218220134040828
112,2.8058362007141113,0.7555,-0.0543,0.1131,-9.667,-0.882,1.222,-0.069741,0.021276,0.011917,0.006021503699721681,-0.6882219299139047,0.6786635098661198,0.2563789325490177
113,2.8246078491210938,0.7495,-0.0532,0.1086,-9.644,-0.832,1.159,-0.075639,0.019251,0.005775,-0.07178573793671551,-0.7049708073911781,0.637818108400438,0.3017466307212047
114,2.847960948944092,0.7572,-0.0581,0.1203,-9.689,-0.703,1.197,-0.062893,0.017937,-0.006339,-0.17609580183932935,-0.7259434596165393,0.5630514519791345,0.3535101475753166
115,2.8775322437286377,0.7475,-0.0508,0.1056,-9.629,-0.647,1.293,-0.028756,0.005669,-0.005394,-0.27603652617149904,-0.7376880370751113,0.4801813120210836,0.386064895789751
116,2.8984899520874023,0.7562,-0.0546,0.1134,-9.635,-0.67,1.304,-0.000188,-0.016468,0.005721,-0.25268920641014225,-0.7298372495813018,0.5033608556648583,0.38744496779769244
117,2.9268524646759033,0.7479,-0.0538,0.1088,-9.672,-0.729,1.181,0.013585,-0.023521,0.015066,-0.129272748950234,-0.6946915035826763,0.6146302290397639,0.3506022714978006
118,2.951565742492676,0.757,-0.0573,0.1182,-9.661,-0.848,1.192,0.027582,-0.028555,0.014202,0.00950394896009904,-0.6187236934041498,0.7377400676181723,0.2698708187359759
119,2.976135492324829,0.7477,-0.0521,0.1043,-9.723,-0.929,1.225,0.027723,-0.034057,0.010903,0.1261624581268942,-0.5148049997751012,0.8325296586242809,0.1611000120325142
120,2.9986531734466553,0.7573,-0.0535,0.1116,-9.66,-0.899,1.185,0.014772,-0.022204,0.024485,0.21468358619000294,-0.37116432384790676,0.9033042295429768,0.013764861528354932
121,3.0253429412841797,0.75,-0.0543,0.1072,-9.71,-0.944,1.234,0.005878,0.008079,0.03677,0.23885877688605456,-0.21752925512403568,0.934527039405365,-0.14928737552091914
122,3.0490777492523193,0.7582,-0.0592,0.1158,-9.735,-0.91,1.247,-0.010403,0.031256,0.026314,0.21555355075957314,-0.15983274981264073,0.9383209376049472,-0.21804581375124488
123,3.0744833946228027,0.7477,-0.0532,0.1032,-9.6,-0.885,1.365,-0.003138,0.036086,0.030435,0.1840908455079687,-0.1599918856324533,0.9419074037836694,-0.23091903306016373
124,3.100440502166748,0.7572,-0.057,0.1126,-9.559,-0.878,1.369,-0.028037,0.003251,0.037252,0.14536050903942,-0.07900137824462364,0.9353548916202524,-0.31263450124596986
125,3.125143527984619,0.7505,-0.0562,0.1102,-9.528,-0.715,1.339,-0.064695,-0.021579,0.032373,0.07868248295672908,0.07959955984091394,0.887559377648231,-0.44689073395806905
126,3.149571180343628,0.7584,-0.0605,0.1179,-9.649,-0.491,1.25,-0.08775,-0.047112,0.0266,-0.04742774223554207,0.2676385465898234,0.7685411140584364,-0.5791932092553775
127,3.1742570400238037,0.7492,-0.0562,0.104,-9.783,-0.39,1.237,-0.044389,-0.043225,0.031247,-0.24403741139795532,0.40803374272922377,0.565577340895328,-0.6738519704640898
128,3.200808048248291,0.7582,-0.0589,0.1097,-9.717,-0.509,1.389,0.057395,-0.047689,0.030078,-0.48556132299448806,0.4300048952719793,0.3071163684113443,-0.6964233826544051
129,3.2263505458831787,0.7533,-0.0578,0.1062,-9.61,-0.642,1.443,0.11194,-0.030983,0.038744,-0.7346353108728387,0.292683881654937,0.025415110179440675,-0.6115563568574308
130,3.2497525215148926,0.7602,-0.0616,0.1145,-9.667,-0.757,1.417,0.088154,-0.027402,0.044759,-0.9044677109608972,0.0185125323983518,-0.17189022134173726,-0.38993486350984774
131,3.275399923324585,0.7517,-0.0578,0.0998,-9.746,-1.073,1.377,0.080302,-0.029961,0.034641,-0.9245701404340666,-0.284152571840971,-0.21965019195758612,-0.127205206288453
132,3.300567150115967,0.7603,-0.0589,0.11,-9.646,-1.148,1.309,0.013681,-0.032166,0.031912,-0.8324542595140888,-0.5241336450199443,-0.1530816684304685,0.09417977896290253
133,3.327244997024536,0.7543,-0.0591,0.1054,-9.678,-0.888,1.29,-0.078944,-0.001133,0.033406,-0.7320953688015291,-0.6402614315467867,-0.039041203322641854,0.22929774245755769
134,3.3486077785491943,0.7615,-0.0632,0.1134,-9.65,-0.733,1.252,-0.088161,0.008467,0.031946,-0.6719469414204421,-0.6750684508776644,0.0594121484877409,0.2987308004833345
135,3.3774771690368652,0.751,-0.057,0.1017,-9.691,-0.653,1.301,-0.061829,0.001017,0.03771,-0.5797339183875113,-0.7067505567542017,0.18377186395459089,0.3614417469210545
136,3.406881332397461,0.7597,-0.0616,0.1057,-9.621,-0.651,1.37,-0.060503,-0.010656,0.040853,-0.4158060824041966,-0.7252966816484524,0.36884246255357445,0.40620839878421117
137,3.4249069690704346,0.7537,-0.0626,0.1033,-9.655,-0.435,1.449,-0.089364,-0.010786,0.036796,-0.25093789123663196,-0.6831480775637973,0.5541808530032828,0.4040079962416015
138,3.4483141899108887,0.7617,-0.0662,0.1116,-9.729,-0.391,1.491,-0.049419,-0.01049,0.026229,-0.1281292724533592,-0.6097469951057783,0.6913119479507508,0.36589517914367975
139,3.4777352809906006,0.7517,-0.0613,0.0977,-9.742,-0.504,1.411,0.003831,-0.006069,0.014097,-0.04761946235867888,-0.5497101728675893,0.77320509508226,0.31257798001361004
140,3.498314619064331,0.7597,-0.0635,0.107,-9.666,-0.472,1.302,0.038261,-0.004223,0.010711,0.0021383852327010316,-0.5143865568738863,0.8186675017782348,0.2553143531966209
141,3.5263373851776123,0.7529,-0.0632,0.1046,-9.621,-0.456,1.29,0.050844,-0.000951,0.015231,0.05867352261298698,-0.46537203451902975,0.8659215361875248,0.17368413974349992
142,3.5516130924224854,0.7617,-0.0664,0.1108,-9.63,-0.696,1.332,0.050829,-0.006913,0.0129,0.10814603566015801,-0.40843220506348576,0.9030599497701712,0.07726769026615513
143,3.5735247135162354,0.7506,-0.0613,0.1,-9.691,-0.817,1.27,0.020671,-0.008235,0.006905,0.14238623088888627,-0.35182768722238855,0.9251714663435519,0.0010943585902614683
144,3.6011710166931152,0.7592,-0.0616,0.1054,-9.692,-0.746,1.339,0.007219,-0.001267,0.006286,0.1591773254490177,-0.31808068508442566,0.9334860416517465,-0.045728184749385094
145,3.628138542175293,0.7542,-0.0621,0.1025,-9.742,-0.631,1.333,-0.016762,0.009358,0.013173,0.1599806907489267,-0.2928710959634231,0.9396557286539834,-0.07536452311552845
146,3.6523232460021973,0.7614,-0.0656,0.1102,-9.816,-0.502,1.375,-0.008705,0.011825,0.020814,0.15776933954519642,-0.23494024152211382,0.9492917569900781,-0.13695648405129948
147,3.675079107284546,0.7514,-0.061,0.0987,-9.67,-0.524,1.356,0.036676,0.022331,0.026484,0.14486536908406322,-0.158938760644196,0.9479790619348623,-0.2347087415034292
148,3.6994707584381104,0.7586,-0.0637,0.107,-9.599,-0.68,1.349,0.053334,0.023685,0.015064,0.1265862864511567,-0.12339171769895402,0.9318770504606005,-0.31678945517592394
149,3.728402853012085,0.7532,-0.0616,0.1035,-9.57,-0.672,1.348,0.026162,0.010243,-0.002857,0.12726913018970903,-0.1477554380017123,0.9239783488267477,-0.3289907444611078
150,3.750091791152954,0.7599,-0.0656,0.1129,-9.645,-0.538,1.36,-0.002878,0.003534,-0.014761,0.13871096021230123,-0.21556975359471103,0.9280351783080092,-0.2702585034275856
151,3.7826993465423584,0.7496,-0.0618,0.1011,-9.612,-0.561,1.296,0.015538,0.005505,-0.017645,0.14394362354616966,-0.29643571525176005,0.9229807913783623,-0.198777661496829
152,3.800907611846924,0.7571,-0.0627,0.1075,-9.547,-0.594,1.334,0.072956,0.00504,-0.013293,0.145883870574807,-0.3778656485392812,0.902121471909038,-0.14870204396971873
153,3.8264946937561035,0.7524,-0.0618,0.1054,-9.739,-0.623,1.434,0.065765,-0.001417,-0.001525,0.1644807942882752,-0.40074940144048354,0.8846530924538112,-0.1724380803862672
154,3.850722074508667,0.7599,-0.0659,0.1147,-9.895,-0.674,1.426,0.014275,-0.015413,-0.005812,0.18617325402664145,-0.38786066594168794,0.8794760877785603,-0.20353239134378454
155,3.928640365600586,0.7494,-0.0594,0.1022,-9.751,-0.725,1.275,-0.004033,-0.00643,-0.011002,0.19455105597359146,-0.40713056170525075,0.8733024411864272,-0.18367753962571032
156,3.9344615936279297,0.7574,-0.0613,0.1099,-9.673,-0.682,1.232,0.004021,-0.002938,-0.015713,0.18625661390554415,-0.4698405158186577,0.8544076427762963,-0.12060656465197778
157,3.974055528640747,0.7528,-0.0583,0.1054,-9.66,-0.615,1.321,0.035461,0.001994,-0.015548,0.1739236617824984,-0.537955679781415,0.8221719608255829,-0.06623830685712734
158,3.97420334815979,0.76,-0.0621,0.1142,-9.62,-0.577,1.351,0.036573,0.00751,-0.012823,0.15934855572690987,-0.6014930414282056,0.7823811259861876,-0.02634260051285406
159,3.9780163764953613,0.751,-0.0573,0.1014,-9.643,-0.615,1.337,-0.001893,0.008577,-0.009947,0.12331790120788684,-0.6623973507539253,0.738638224597437,0.02088104689447954
160,3.998997926712036,0.7582,-0.0575,0.1081,-9.663,-0.673,1.301,-0.009496,0.005768,-0.010493,0.07552993281800263,-0.7174152773772704,0.6886011848950846,0.07374928606629215
161,4.027898550033569,0.7528,-0.0573,0.107,-9.686,-0.7,1.25,-0.012875,0.003574,-0.006785,0.03834130411637968,-0.7520641670130187,0.6489877935082059,0.10837101536397915
162,4.049252271652222,0.76,-0.0619,0.1147,-9.666,-0.695,1.257,-0.021848,0.001833,-0.007765,-0.0025672041021039538,-0.7815132232846189,0.6084010555213284,0.13812547532919728
163,4.081096172332764,0.7505,-0.0573,0.1014,-9.727,-0.627,1.245,-0.02777,0.007668,-0.00776,-0.05361427696807004,-0.8060496923113973,0.5643285710183449,0.17012544419423498
164,4.10184645652771,0.7588,-0.0578,0.1092,-9.695,-0.666,1.227,-0.028513,0.018498,-0.006161,-0.13295430825708884,-0.8332825104136187,0.497930164248631,0.20007239011414799
165,4.126846790313721,0.7533,-0.0581,0.107,-9.659,-0.747,1.246,-0.005858,0.024741,-0.012556,-0.2436138762294403,-0.8580259820443722,0.39631871115810335,0.21765838516178865
166,4.151170253753662,0.76,-0.0616,0.1163,-9.663,-0.774,1.288,-0.003821,0.021148,-0.014375,-0.3650137514013612,-0.8640950879655361,0.27567709655501343,0.2100161390863462
167,4.178246259689331,0.7515,-0.0567,0.1038,-9.684,-0.647,1.354,-0.022718,0.012387,-0.014545,-0.47228168529821024,-0.8434730212343627,0.17338944206476167,0.18825348220452406
168,4.20242166519165,0.759,-0.0581,0.111,-9.666,-0.648,1.325,-0.034005,0.008922,-0.012025,-0.5676001104341893,-0.8035837746531439,0.08800294327596535,0.15600869759109093
169,4.228068828582764,0.7549,-0.0578,0.1083,-9.67,-0.69,1.384,-0.02745,0.009591,-0.01262,-0.6526815703094785,-0.7495884424261173,0.011031017705344391,0.10955478724330221
170,4.2509918212890625,0.7603,-0.0605,0.115,-9.633,-0.631,1.302,-0.030886,0.001658,-0.012048,-0.7158608873489903,-0.6938490625844583,-0.046394079604349756,0.06296235138755416
171,4.2756147384643555,0.7513,-0.0546,0.1022,-9.648,-0.683,1.243,-0.014522,0.000482,-0.009136,-0.7584203149235808,-0.6455359310671863,-0.08654632305229598,0.024325327923078205
172,4.300547122955322,0.7598,-0.0567,0.1129,-9.642,-0.766,1.198,0.005908,0.003816,-0.009891,-0.7905865912716555,-0.6000202505492089,-0.12060734508096521,-0.020060133221144902
173,4.324665069580078,0.7544,-0.057,0.1089,-9.661,-0.862,1.248,0.020429,0.002668,-0.015682,-0.8181873728973906,-0.5474247727449358,-0.15781949499718656,-0.07738570937359651
174,4.3492937088012695,0.7606,-0.0586,0.1161,-9.743,-0.826,1.277,-0.001312,0.000132,-0.019412,-0.8487357495789337,-0.4619740965822293,-0.19839755454238783,-0.16390842512000034
175,4.375502109527588,0.7513,-0.0556,0.1038,-9.745,-0.764,1.251,-0.055105,0.001159,-0.017353,-0.8758627669271665,-0.3395242837677092,-0.21582106731461165,-0.2664750291226069
176,4.399873971939087,0.7588,-0.0548,0.1097,-9.671,-0.625,1.309,-0.056609,0.004439,-0.014414,-0.8839493705706937,-0.21075399815770038,-0.20142625135749895,-0.3655731497146424
177,4.424775838851929,0.7536,-0.054,0.1078,-9.656,-0.61,1.259,-0.039263,0.014253,-0.010726,-0.8691989073580548,-0.10019492340356817,-0.16744901872191464,-0.4543292450423861
178,4.454482793807983,0.7595,-0.06,0.1163,-9.683,-0.671,1.233,-0.019382,0.018745,-0.00503,-0.8373363746871689,-0.014358481024330787,-0.11747135555866403,-0.533724751413716
179,4.475212812423706,0.7513,-0.0532,0.1062,-9.694,-0.738,1.244,0.008642,0.024425,-0.004582,-0.7908965188641444,0.05256784106744074,-0.06002439699884466,-0.6067259598031154
180,4.507734775543213,0.7588,-0.0554,0.1113,-9.664,-0.891,1.269,0.028147,0.021562,-0.007947,-0.7248603718440955,0.10551094180475273,0.0046054637786164115,-0.680752284015924
181,4.526156902313232,0.7526,-0.0548,0.1094,-9.622,-0.916,1.235,-0.017127,0.012415,-0.009855,-0.6533611748990248,0.15498157112205724,0.07978965163912981,-0.7367044856917943
182,4.547975063323975,0.7598,-0.0576,0.1174,-9.667,-0.732,1.262,-0.048814,0.002802,-0.009921,-0.592161744343694,0.20373830295465353,0.1571236679196985,-0.7636408353568133
183,4.574682712554932,0.7495,-0.0538,0.1046,-9.685,-0.677,1.288,-0.044773,0.004124,-0.010036,-0.524415014029852,0.2440907151587195,0.23985747024575793,-0.779664677794679
184,4.60859227180481,0.758,-0.0549,0.1118,-9.67,-0.644,1.298,-0.024749,0.005757,-0.010375,-0.45275690744899233,0.26854744862157276,0.3255494673487565,-0.785436817894991
185,4.632504463195801,0.7518,-0.0551,0.1099,-9.693,-0.58,1.25,-0.002942,-0.003012,-0.013491,-0.3896254142274938,0.2783253600913309,0.38897445736616865,-0.7870361503989378
186,4.653501749038696,0.7588,-0.0567,0.1169,-9.652,-0.591,1.249,0.029212,0.004308,-0.014224,-0.3228797741547509,0.27310654212559937,0.44697363185025935,-0.7882740897178874
187,4.673524618148804,0.7492,-0.0529,0.1059,-9.653,-0.747,1.319,0.033283,0.003808,-0.008948,-0.2644027401670114,0.2563179146522943,0.49005139687364657,-0.7900898341598015
188,4.698134422302246,0.7562,-0.054,0.1097,-9.68,-0.818,1.306,0.01934,0.002004,0.001527,-0.2482016465927394,0.2467037846691535,0.4972278002864892,-0.7939129044680077
189,4.727196931838989,0.7516,-0.0535,0.1118,-9.696,-0.831,1.24,0.004544,-0.001023,0.007298,-0.260878844466145,0.2457437296177146,0.4814344629240655,-0.7998581785370462
190,4.751029968261719,0.7583,-0.0559,0.1166,-9.689,-0.861,1.267,-0.010999,0.001263,0.010539,-0.295369413916461,0.24936855050334256,0.4507702045675553,-0.8045983209133815
191,4.77929425239563,0.7485,-0.0513,0.1064,-9.654,-0.851,1.263,-0.040202,0.002867,0.013348,-0.3296844531207149,0.25695589250261924,0.432821546101238,-0.7987160571249405
192,4.799015522003174,0.7563,-0.0535,0.1121,-9.697,-0.776,1.211,-0.053621,0.003675,0.015409,-0.37295878797431153,0.2678239821406543,0.41499559365688354,-0.7854621024011444
193,4.824259996414185,0.7516,-0.0549,0.1126,-9.698,-0.775,1.224,-0.041355,0.002786,0.012363,-0.40988179647919604,0.275895842195769,0.3998098495326344,-0.7720301039407509
194,4.853923559188843,0.7575,-0.0576,0.1155,-9.679,-0.715,1.208,-0.025446,0.006404,0.007637,-0.42912589353203034,0.2814005838076408,0.3972116753756392,-0.7608466099538943
195,4.876408576965332,0.7487,-0.0543,0.1056,-9.676,-0.7,1.226,-0.029328,0.011629,0.010596,-0.44116677304185176,0.28265550817129054,0.4006948577365127,-0.7516125152282822
196,4.901261568069458,0.7552,-0.0557,0.1121,-9.676,-0.651,1.26,-0.035944,0.011049,0.010503,-0.4568314801004431,0.28586021306389026,0.40651860204483614,-0.7377882918343296
197,4.927624464035034,0.7515,-0.0565,0.1115,-9.696,-0.709,1.303,-0.010375,0.007208,0.008078,-0.4718923733992418,0.28591114444582094,0.40521018127346153,-0.728956181400254
198,4.948200464248657,0.7577,-0.0581,0.1179,-9.622,-0.749,1.241,-0.007905,0.007974,0.007893,-0.48629729526347804,0.2818295245336413,0.39891632185803216,-0.7245362847199761
199,4.975358486175537,0.7487,-0.0535,0.1062,-9.64,-0.677,1.286,-0.019961,0.000629,0.009762,-0.5110486470859256,0.28129192580123513,0.383059786166579,-0.716218774546362
200,5.00417685508728,0.7557,-0.0565,0.1123,-9.702,-0.63,1.31,-0.023023,-0.002455,0.012787,-0.5640010516606351,0.2785922891400818,0.33898284398962863,-0.6995568466094015
201,5.0304114818573,0.751,-0.0573,0.1115,-9.698,-0.685,1.204,-0.012942,0.000399,0.010821,-0.6089316772866719,0.2715752194988649,0.3025995859836807,-0.6810892769039085
202,5.052954196929932,0.7572,-0.0589,0.1171,-9.674,-0.69,1.221,0.002601,-0.000238,0.009593,-0.6451462115215943,0.2583145367168387,0.27034750670566576,-0.6663123828191466
203,5.077836275100708,0.7482,-0.0556,0.1072,-9.656,-0.649,1.235,0.004478,0.000456,0.01031,-0.6809728925216426,0.24021846286445392,0.23638674245489633,-0.6501479198930876
204,5.099212646484375,0.7554,-0.0565,0.1123,-9.665,-0.662,1.235,0.002621,-0.001517,0.012081,-0.7292419355944654,0.2093818262636867,0.19026093951796166,-0.6230298749615972
205,5.125094175338745,0.751,-0.0562,0.1126,-9.661,-0.687,1.141,0.008951,-0.003789,0.01262,-0.7773134093942059,0.17047041784567596,0.14233116097070697,-0.5886132353525588
206,5.1499762535095215,0.7577,-0.0584,0.1171,-9.666,-0.708,1.236,0.017817,-0.007817,0.011975,-0.827810770014015,0.1140884772183846,0.08717868418029,-0.5423218836073157
207,5.174335241317749,0.7487,-0.0546,0.1048,-9.669,-0.652,1.275,0.011115,-0.008316,0.01337,-0.8733938114068479,0.04751599915433214,0.03636472018354143,-0.48332503260906895
208,5.202508211135864,0.7564,-0.0583,0.1097,-9.651,-0.628,1.265,0.001457,-0.010116,0.017684,-0.9148473659678382,-0.03502093656291572,-0.007968656509689843,-0.40219936784807986
209,5.2408998012542725,0.7538,-0.0567,0.112,-9.668,-0.559,1.2,0.008419,-0.010643,0.018645,-0.9426694444751922,-0.13746730261558995,-0.03889496153120385,-0.3016027870095242
210,5.248491048812866,0.7585,-0.0581,0.1174,-9.66,-0.553,1.243,0.033344,-0.010698,0.018671,-0.9449173058765019,-0.2630704264713549,-0.04849332033124356,-0.1886097390235303
211,5.278606176376343,0.7505,-0.0554,0.1064,-9.658,-0.522,1.24,0.060644,-0.007154,0.020798,-0.9112046062658596,-0.4032060847425411,-0.03065287086431694,-0.0786855784387844
212,5.299083471298218,0.7575,-0.057,0.11,-9.679,-0.617,1.306,0.091977,-0.00391,0.023906,-0.8267413262959152,-0.5613338490900257,0.02738550379478579,0.025556279896596885
213,5.32731032371521,0.7536,-0.057,0.111,-9.679,-0.825,1.321,0.080267,0.001049,0.024201,-0.7072812165837169,-0.689809999182739,0.1185147339585181,0.09934638156525138
214,5.350811719894409,0.7598,-0.0597,0.1156,-9.738,-0.869,1.367,0.056954,0.001485,0.015324,-0.6081433240620501,-0.7595094188555976,0.19337459051586192,0.12614835635558397
215,5.376485109329224,0.7513,-0.0554,0.1054,-9.73,-0.84,1.147,-0.011178,-0.002774,0.012148,-0.535782320842935,-0.7897348577356035,0.26061929369389314,0.1460607507305791
216,5.399991273880005,0.758,-0.0554,0.1108,-9.685,-0.669,1.178,-0.023518,0.003189,0.009085,-0.5061619457994411,-0.7911555999039114,0.3040687890290578,0.15942105539610454
217,5.426254034042358,0.7548,-0.0586,0.1126,-9.657,-0.566,1.188,-0.010864,0.004082,0.009915,-0.4788673613726464,-0.7903325768667375,0.3440644583741575,0.1663734252784359
218,5.449680328369141,0.7611,-0.0586,0.1172,-9.649,-0.581,1.199,0.037702,0.003769,0.013179,-0.41942891498761753,-0.798840772261957,0.40025934620049436,0.16039096490570365
219,5.475442886352539,0.7516,-0.0546,0.1051,-9.651,-0.629,1.348,0.050886,-0.003265,0.009482,-0.33512469610994766,-0.8078180121080256,0.46465727213889924,0.1386186019965937
220,5.50032901763916,0.7588,-0.0567,0.1081,-9.669,-0.681,1.387,0.011172,-0.013959,0.004781,-0.2638584267420873,-0.804692549544216,0.5177458278112502,0.12160546504686034
221,5.5255162715911865,0.7554,-0.0573,0.1118,-9.674,-0.642,1.289,-0.01879,-0.014255,0.003221,-0.21843074173482588,-0.7888867633999804,0.5624261998526965,0.1167152745647786
222,5.551216125488281,0.7618,-0.0613,0.1156,-9.695,-0.595,1.306,0.00961,-0.012598,0.004878,-0.17147500569925006,-0.7697895182031157,0.6058523793522216,0.10470584758412099
223,5.573193311691284,0.7515,-0.0564,0.1041,-9.689,-0.629,1.288,0.042525,-0.013243,0.00435,-0.10465678446018845,-0.7474224955126713,0.6524270004179509,0.06888816874979005
224,5.601824998855591,0.7592,-0.0592,0.1076,-9.654,-0.638,1.335,0.020547,-0.018019,0.007071,-0.03253095131589309,-0.7111965078219633,0.7019217258444639,0.0211460458681159
225,5.624638795852661,0.758,-0.0575,0.1113,-9.656,-0.668,1.316,-0.023047,-0.02311,0.007907,0.03143093423172229,-0.6474705427537211,0.7608637879226392,-0.029669662410214032
226,5.648960590362549,0.7623,-0.0616,0.1148,-9.683,-0.656,1.37,-0.024708,-0.026568,0.001984,0.0736249832354537,-0.5852494790546091,0.8047423972192141,-0.06672393294583578
227,5.674323320388794,0.7541,-0.057,0.1043,-9.694,-0.607,1.331,-0.014923,-0.023276,-0.001533,0.10763042411998669,-0.5308539322811006,0.8348330766061463,-0.09830324811398994
228,5.698426723480225,0.7611,-0.0575,0.1065,-9.692,-0.544,1.249,-0.014033,-0.016763,-0.004745,0.12622185409213096,-0.5016673837588292,0.8487456596747918,-0.10967536097646977
229,5.724352836608887,0.759,-0.057,0.11,-9.697,-0.545,1.285,-0.001436,-0.011899,-0.00608,0.1365906481392619,-0.49249452755778644,0.8526564361611483,-0.10848565361142865
230,5.755001544952393,0.7647,-0.0597,0.1127,-9.691,-0.571,1.26,-0.002696,-0.011712,-0.006668,0.14306703448508945,-0.4930473892521513,0.8522696754920611,-0.10036182457456877
231,5.774893045425415,0.7554,-0.0567,0.1017,-9.657,-0.667,1.319,0.000647,-0.010997,-0.008136,0.1475307879584598,-0.5025570073933436,0.8476113044093067,-0.08500704418903401
232,5.800555467605591,0.7619,-0.057,0.1063,-9.682,-0.628,1.371,-0.01319,-0.016249,-0.004025,0.1565660423600133,-0.4964614918845998,0.8502941838545984,-0.07754264864242363
233,5.826490879058838,0.7598,-0.057,0.1095,-9.646,-0.65,1.314,-0.016382,-0.013926,-0.003128,0.16857049661407233,-0.47591075401403427,0.8592025705757851,-0.08284856426662643
234,5.848689317703247,0.7652,-0.06,0.1108,-9.677,-0.677,1.283,-0.017131,-0.009521,-0.003335,0.17403498539328355,-0.46697863488650115,0.8635208774377857,-0.07729471293546594
235,5.874731779098511,0.7567,-0.0556,0.1023,-9.694,-0.692,1.331,-0.030455,-0.007224,-0.005863,0.17136663792402076,-0.4697582522086603,0.8640814308425552,-0.0576536274796726
236,5.900278091430664,0.764,-0.057,0.1034,-9.681,-0.67,1.339,-0.027583,-0.004533,-0.006223,0.15993477579721416,-0.4886104437026397,0.8575037550942565,-0.019183633510210088
237,5.925025939941406,0.7613,-0.0583,0.1089,-9.692,-0.7,1.358,-0.027825,-0.003843,-0.005004,0.14801816151700137,-0.5065886052608491,0.8492782900426106,0.013601284619243571
238,5.952105283737183,0.7652,-0.0589,0.1106,-9.672,-0.654,1.33,-0.0299,-0.000784,-0.008927,0.12150775765840816,-0.5408243316716821,0.8297005951393325,0.06589256047643875
239,5.974148750305176,0.7581,-0.054,0.1023,-9.672,-0.699,1.328,-0.007406,-0.003769,-0.008581,0.09989206671058662,-0.5712967786629778,0.8076000157641011,0.10688208566179733
240,5.997940301895142,0.7632,-0.0564,0.1013,-9.688,-0.668,1.364,-0.006609,-0.002058,-0.008179,0.07833280959999545,-0.601071332060027,0.7821622765913293,0.1442199632270938
241,6.0254340171813965,0.7611,-0.0565,0.1089,-9.657,-0.658,1.324,0.010548,0.002008,-0.002801,0.06698106889490996,-0.617741989319059,0.7668031188574841,0.16100108059346172
242,6.057077646255493,0.7665,-0.0594,0.11,-9.633,-0.684,1.366,0.003154,0.007156,0.004624,0.06203058710866803,-0.6240443261201547,0.7621944781853512,0.1605629556403218
243,6.074566125869751,0.757,-0.0535,0.0991,-9.672,-0.689,1.389,-0.003377,0.010263,0.007912,0.06223625810316868,-0.6176733412115389,0.7692536794623137,0.1511789283186699
244,6.098687648773193,0.7634,-0.057,0.1047,-9.682,-0.79,1.405,0.000269,0.008927,0.00074,0.053462281061417934,-0.6238771342240385,0.7644919446391755,0.15320304330502998
245,6.124411582946777,0.7614,-0.0565,0.1076,-9.719,-0.783,1.357,-0.032458,0.013888,-0.009299,0.0003137560455008098,-0.6627710672067675,0.7218962234713988,0.1989981320728374
246,6.149290084838867,0.7658,-0.0581,0.1103,-9.71,-0.629,1.264,-0.051735,0.019172,-0.012864,-0.11061692837390703,-0.7170933835981009,0.6314318891033804,0.27355939717049516
247,6.186960458755493,0.7567,-0.0562,0.1004,-9.691,-0.544,1.251,-0.020282,0.021294,-0.016732,-0.2471377509051918,-0.7544917194197632,0.513270067773537,0.32591258787024713
248,6.200465679168701,0.764,-0.0556,0.105,-9.707,-0.543,1.335,0.038397,0.024429,-0.016324,-0.3813405823128353,-0.7743919482507738,0.3813608811765399,0.33084792439114924
249,6.225478410720825,0.7614,-0.0567,0.1097,-9.641,-0.596,1.41,0.019553,0.021017,-0.012394,-0.4895128391888029,-0.7709016565075482,0.2710040943295665,0.30437574988794175
250,6.250716209411621,0.7655,-0.0565,0.1114,-9.652,-0.577,1.336,-0.007128,0.014655,-0.008836,-0.5776214991514076,-0.7459439315561707,0.18754459169468382,0.2734009524831211
251,6.283031463623047,0.7573,-0.0548,0.102,-9.667,-0.584,1.265,-0.016892,0.011733,-0.00437,-0.6452929330274069,-0.7122683830363533,0.12898821460821527,0.24419832432645838
252,6.299123525619507,0.7627,-0.0543,0.1055,-9.695,-0.59,1.37,0.004915,0.012958,-0.000732,-0.6867212991530379,-0.6871505035843979,0.0947663826046845,0.2173876156575969
253,6.325144290924072,0.7624,-0.0554,0.11,-9.683,-0.609,1.318,0.012577,0.015892,-0.00096,-0.7174925958856111,-0.6670149794843335,0.06830335631984238,0.18875922098876644
254,6.3512187004089355,0.7666,-0.0559,0.113,-9.698,-0.742,1.31,0.022549,0.01538,-0.001769,-0.7415909738964157,-0.6510334429112606,0.04484547981473596,0.15552223823833652
255,6.38433051109314,0.7565,-0.0546,0.1044,-9.619,-0.81,1.32,-0.002843,0.012674,0.000122,-0.7627328243227119,-0.633713266612206,0.025661204435402686,0.1264422279434792
256,6.400145769119263,0.7609,-0.0543,0.106,-9.609,-0.706,1.267,-0.037504,0.001509,0.003218,-0.7791231994317023,-0.6144073655347512,0.02200206951810077,0.12241951732005385
257,6.424731969833374,0.7601,-0.0559,0.1126,-9.657,-0.707,1.263,-0.034505,0.002782,0.000615,-0.7929745532397977,-0.5962416695191144,0.02087591953741958,0.12349666160131437
258,6.450021266937256,0.7642,-0.0581,0.1129,-9.718,-0.702,1.278,-0.033268,0.007414,-0.008118,-0.8274046273858847,-0.5527130654699813,-0.0012922775080030785,0.09953984055665151
259,6.474977493286133,0.7549,-0.0554,0.103,-9.703,-0.673,1.259,-0.018831,0.017554,-0.015394,-0.8835372968814349,-0.46538840106504864,-0.046359708684495064,0.02502515902554039
260,6.499122381210327,0.7609,-0.0543,0.1066,-9.709,-0.654,1.31,-0.020122,0.018481,-0.01807,-0.9309637470550756,-0.34325008560651904,-0.08475863686227762,-0.09111450969817828
261,6.527096748352051,0.7601,-0.0549,0.1126,-9.681,-0.621,1.337,-0.032586,0.015488,-0.015998,-0.9501864936630352,-0.21061623660837547,-0.09254914999144803,-0.21028809517690703
262,6.548511743545532,0.7632,-0.0565,0.1159,-9.655,-0.567,1.319,-0.028647,0.009248,-0.014162,-0.9446641130948165,-0.09825273278855845,-0.07568259664962931,-0.30369105764696713
263,6.575270652770996,0.7547,-0.0543,0.1054,-9.685,-0.678,1.307,-0.00182,0.00547,-0.013461,-0.9260272213307394,-0.022219177013132863,-0.05500394357010699,-0.37276595836941057
264,6.5994713306427,0.7607,-0.0535,0.1081,-9.675,-0.693,1.272,-0.007183,0.0017,-0.013821,-0.901038896062705,0.03901113065846269,-0.032556474604890015,-0.43075180258259077
265,6.625290632247925,0.7601,-0.0549,0.1145,-9.684,-0.644,1.24,-0.012119,0.005371,-0.017352,-0.8606231780339804,0.11350903976301614,0.006654102202728829,-0.4963861060169243
266,6.648369789123535,0.7635,-0.0559,0.1132,-9.709,-0.693,1.28,-0.002577,0.00535,-0.017903,-0.8049026334742373,0.18217836827040257,0.05928831547436859,-0.5616294938914651
267,6.675530433654785,0.7542,-0.0532,0.1062,-9.654,-0.664,1.235,-0.008125,0.005428,-0.018374,-0.7351006923974934,0.24527921878752568,0.12691725757543687,-0.6191583695608394
268,6.698408365249634,0.7583,-0.0535,0.111,-9.667,-0.657,1.274,0.024235,0.003632,-0.015732,-0.6691619991046386,0.28184470555781177,0.1867448354839468,-0.6617493085174987
269,6.722969055175781,0.758,-0.0546,0.1142,-9.671,-0.712,1.274,0.031472,-0.002197,-0.016568,-0.6128146542369478,0.29792736709287215,0.227284988605562,-0.6957291264882681
270,6.750014066696167,0.7617,-0.0538,0.1156,-9.666,-0.717,1.284,-0.002316,-0.005827,-0.013908,-0.5627058557004149,0.3150058501493498,0.2647119615377158,-0.7169804821269574
271,6.774080038070679,0.7524,-0.0511,0.1062,-9.71,-0.681,1.183,-0.000863,-0.004154,-0.019782,-0.5011852180530405,0.33633495746157616,0.31840304656631396,-0.7309662601869771
272,6.800379276275635,0.7581,-0.0503,0.1081,-9.667,-0.675,1.228,0.036743,-0.000911,-0.02288,-0.41260947337763487,0.3420362346636736,0.3917781654046733,-0.7478465790309372
273,6.824418544769287,0.7568,-0.053,0.1118,-9.657,-0.71,1.223,0.04751,0.00274,-0.024931,-0.31082061503396297,0.32855850433403316,0.47093856216092606,-0.75740129731173
274,6.849416017532349,0.7607,-0.0511,0.1169,-9.693,-0.753,1.246,0.042041,0.002985,-0.024634,-0.2062966251775384,0.29873543436119304,0.5544828321369824,-0.7488308430899054
275,6.875983953475952,0.7525,-0.0484,0.1075,-9.719,-0.768,1.217,0.047462,0.002245,-0.025054,-0.1086092793754391,0.25491229464878684,0.6296665608270419,-0.7257711544603319
276,6.900367736816406,0.7574,-0.0486,0.1092,-9.659,-0.795,1.244,0.046446,-0.00163,-0.026021,-0.017096198286803366,0.19995570072073257,0.6943306931859624,-0.6911080423879613
277,6.926092624664307,0.7574,-0.0503,0.1169,-9.68,-0.835,1.192,0.022325,-0.001953,-0.025094,0.06752771541858693,0.1357358251082854,0.7567538968907682,-0.6358768221701087
278,6.948996067047119,0.7597,-0.0503,0.1172,-9.645,-0.776,1.234,0.01383,-0.000852,-0.026679,0.14169366330264946,0.057291537654437064,0.8145675353068131,-0.5595715467366521
279,6.974325656890869,0.7512,-0.0473,0.1078,-9.693,-0.843,1.289,0.017831,0.000477,-0.02909,0.2034785640506983,-0.03883925693284282,0.8604510027853256,-0.4655234235766207
280,7.00200629234314,0.7564,-0.047,0.1076,-9.696,-0.864,1.286,0.005673,-0.000353,-0.033056,0.2516031209312339,-0.17234212898588636,0.8933319521400428,-0.3300789048090402
281,7.027093172073364,0.7564,-0.0481,0.1166,-9.665,-0.791,1.286,0.001069,-0.000627,-0.033887,0.26575944791157935,-0.31462348667826556,0.8931688201614295,-0.18064727002527287
282,7.048747777938843,0.7582,-0.0479,0.1158,-9.671,-0.772,1.296,-0.00979,0.003579,-0.02877,0.2420768090769514,-0.44735920690335984,0.860129553286773,-0.038022494245045085
283,7.07425856590271,0.7515,-0.0451,0.107,-9.717,-0.795,1.266,0.004382,0.009096,-0.03378,0.17278504381056362,-0.586099835280713,0.7843649044237867,0.10678955205246755
284,7.099233627319336,0.7554,-0.0446,0.1116,-9.663,-0.895,1.253,0.022988,0.008299,-0.035226,0.05628880255565262,-0.7184748336154623,0.6520534884404774,0.2354819151881708
285,7.1250996589660645,0.7557,-0.0449,0.1174,-9.634,-0.83,1.265,0.005871,0.004375,-0.031202,-0.08507604734036438,-0.8020309332002555,0.4973250541940878,0.31965018196415124
286,7.150726318359375,0.7572,-0.0465,0.1153,-9.671,-0.857,1.347,-0.010004,-0.002728,-0.026592,-0.20487076068149565,-0.8334853971318688,0.36597104306449935,0.3597155262481709
287,7.183191537857056,0.7505,-0.0422,0.1113,-9.653,-0.817,1.252,-0.036585,-0.001827,-0.020017,-0.3073080902532346,-0.8330143579145809,0.2608720334108539,0.3789387804872372
288,7.1992106437683105,0.7534,-0.0424,0.1089,-9.713,-0.802,1.192,-0.018006,0.006132,-0.017607,-0.42856518787030434,-0.8111312508569488,0.14665624685751721,0.3699863766229766
289,7.224419355392456,0.7549,-0.0446,0.1193,-9.673,-0.915,1.226,0.00314,0.005426,-0.018443,-0.5214051453342567,-0.7809509532210491,0.048200160602917375,0.3404835203059761
290,7.248634576797485,0.7578,-0.0438,0.1156,-9.655,-0.877,1.305,-0.010993,0.009663,-0.018843,-0.6289861421556601,-0.7207462781473767,-0.06030573653741336,0.2850692085328131
291,7.275901556015015,0.7487,-0.0414,0.1086,-9.684,-0.917,1.28,-0.019459,0.005582,-0.01886,-0.720918695538803,-0.6413980892295651,-0.15224311385007258,0.21379139327982125
292,7.301690578460693,0.7539,-0.0408,0.1113,-9.634,-0.896,1.258,-0.023034,0.006063,-0.018243,-0.7980987110062507,-0.5430930134359738,-0.22856519828461802,0.12588239106526192
293,7.32584547996521,0.7547,-0.0422,0.1203,-9.668,-0.8,1.249,-0.02444,0.003157,-0.015407,-0.8502140441662723,-0.44480001273658815,-0.2783770900025141,0.04237007828285615
294,7.349421262741089,0.7559,-0.0438,0.1169,-9.686,-0.853,1.252,-0.013551,0.00396,-0.015174,-0.8812531456894788,-0.35535226407104115,-0.30939199009021845,-0.03733976566607809
295,7.3746325969696045,0.7479,-0.0419,0.1118,-9.654,-0.874,1.281,-0.007187,0.00459,-0.013485,-0.8977959946758987,-0.26697666613444926,-0.32895859511278336,-0.12029985197444161
296,7.400525808334351,0.7531,-0.0419,0.1116,-9.651,-0.902,1.282,-0.015884,0.007733,-0.009668,-0.9034533605346082,-0.18774381582978633,-0.33340013065316915,-0.19330969410985183
297,7.426495552062988,0.7531,-0.0425,0.1193,-9.651,-0.866,1.248,-0.01704,0.006673,-0.004878,-0.9023559775833037,-0.1164003597063196,-0.32579973446749555,-0.2570198027406239
298,7.451625347137451,0.7557,-0.0441,0.118,-9.686,-0.937,1.268,-0.005748,0.006149,-0.007112,-0.8951313088927209,-0.061776576444711934,-0.3158242176079383,-0.30851038558711236
299,7.474813938140869,0.7485,-0.0411,0.1118,-9.648,-0.887,1.21,-0.020893,0.008017,-0.005247,-0.8814540822552062,0.002150249516963687,-0.2972430515297059,-0.366988617834335
300,7.499117374420166,0.7516,-0.0411,0.1126,-9.665,-0.877,1.237,-0.019994,0.01188,-0.002021,-0.8617788077015965,0.06694570764492247,-0.2674091059717558,-0.42584965523964136
301,7.524948596954346,0.7536,-0.0441,0.1198,-9.651,-0.907,1.279,-0.010302,0.009036,-0.003535,-0.8412643747223412,0.11457278176354166,-0.2401590016543499,-0.47060703716198077
302,7.552950382232666,0.7557,-0.0433,0.119,-9.673,-0.905,1.27,-0.027141,0.005057,-0.003105,-0.8180723056491053,0.16123088934231064,-0.20901918670342193,-0.5109533076922831
303,7.577797889709473,0.7466,-0.0411,0.1131,-9.689,-0.91,1.252,-0.016003,0.009734,-0.003457,-0.7880289547833395,0.2109379988798348,-0.17148207591115971,-0.5523671104372954
304,7.6040122509002686,0.7526,-0.04,0.1142,-9.642,-0.882,1.249,-0.019391,0.01542,-0.005885,-0.7365081814533769,0.27185940183498236,-0.11085536845795052,-0.6093925266773603
305,7.623075485229492,0.7536,-0.0433,0.1211,-9.657,-0.827,1.186,-0.021475,0.01468,-0.005118,-0.6719013257616521,0.3311436901503695,-0.03355765870043928,-0.6616391376391478
306,7.656818866729736,0.7536,-0.0446,0.1219,-9.654,-0.884,1.209,0.001059,0.009918,-0.002804,-0.6276092789018691,0.35978874907280173,0.01762739371063446,-0.6901796317393571
307,7.6762917041778564,0.7469,-0.04,0.1134,-9.64,-0.96,1.222,0.001149,0.00678,-0.001041,-0.5963980930832079,0.3740522834455072,0.052323233219491644,-0.7082771230820419
308,7.7034752368927,0.7511,-0.04,0.1129,-9.638,-0.899,1.225,-0.017147,0.006727,-0.002999,-0.5626241917551121,0.39168184506470893,0.08917064554154877,-0.7225565355543577
309,7.723719120025635,0.7531,-0.0433,0.1216,-9.671,-0.888,1.159,-0.018392,0.00507,-0.003162,-0.5230780764804122,0.4121928911272471,0.13398935366495304,-0.7338482128575103
310,7.7569334506988525,0.7552,-0.043,0.1185,-9.668,-0.895,1.249,0.007725,0.006641,-0.003587,-0.4790500426600083,0.4250979733099657,0.1801301299249845,-0.746562727443858
311,7.77669620513916,0.7474,-0.04,0.1123,-9.677,-0.884,1.218,-0.001027,0.00867,-0.00192,-0.4475804116204163,0.4290951457629914,0.21269258368170108,-0.7551893774829851
312,7.798534154891968,0.75,-0.0403,0.1121,-9.681,-0.917,1.184,-0.019044,0.007646,-0.004635,-0.3983967719010484,0.438465591946808,0.2675004542642394,-0.7599154188368495
313,7.8252503871917725,0.7513,-0.0436,0.1232,-9.654,-0.905,1.256,-0.0154,0.004594,-0.005913,-0.3473421772706264,0.44492332845960797,0.322281525548773,-0.7599547762671672
314,7.849134922027588,0.7531,-0.0433,0.1206,-9.665,-0.882,1.183,-0.022406,0.003633,-0.003398,-0.3076870714003994,0.45034773825213714,0.36579231813015245,-0.7541296710388734
315,7.87531042098999,0.7464,-0.0406,0.1126,-9.683,-0.859,1.215,-0.009022,0.00179,-0.004505,-0.27096323305051173,0.4511727023165719,0.4042674239746921,-0.7480574636563976
316,7.901439905166626,0.7495,-0.0408,0.1129,-9.671,-0.874,1.237,-0.002137,-0.001778,-0.003165,-0.2541142904024804,0.45091647101258314,0.4193490001543752,-0.7458194685393562
317,7.925066232681274,0.7528,-0.043,0.1222,-9.666,-0.91,1.195,-0.014895,-0.00136,-0.003919,-0.23296966403657593,0.45262473120662333,0.4380960143142021,-0.7408966666012388
318,7.950084447860718,0.7533,-0.0441,0.1193,-9.657,-0.939,1.199,-0.012675,-0.000694,-0.003955,-0.21455657116357452,0.4546018236467094,0.45530308451666607,-0.7348481209999967
319,7.975107908248901,0.7466,-0.0411,0.116,-9.663,-0.902,1.189,-0.010584,-0.001357,-0.003881,-0.1960291832056065,0.45596980832291534,0.47071641841191675,-0.729445095032631
320,8.007577657699585,0.7493,-0.0403,0.1126,-9.665,-0.918,1.209,0.002805,-0.001334,-0.005632,-0.16710449505657093,0.4516263623094401,0.4961037567461224,-0.7224892934441418
321,8.025025844573975,0.7521,-0.0422,0.1235,-9.653,-0.934,1.26,0.000442,-0.002375,-0.002945,-0.15020476376146344,0.44873564316350123,0.5075373090327936,-0.7200560613158898
322,8.049739599227905,0.7531,-0.0422,0.1206,-9.68,-0.927,1.206,-0.013544,-0.002017,-0.003675,-0.1352814535034316,0.4495158436961846,0.5192382202098378,-0.7141611199704351
323,8.076577186584473,0.7469,-0.0398,0.1144,-9.659,-0.889,1.202,-0.009308,-0.005542,-0.002002,-0.12989814644470837,0.4538155420101047,0.5218396091390038,-0.710535958072465
324,8.103283643722534,0.7513,-0.04,0.1102,-9.677,-0.966,1.249,0.006525,-0.004785,-0.001418,-0.13748033528147494,0.45990064681702625,0.5082791731887336,-0.715012471619028
325,8.12680983543396,0.7544,-0.0414,0.1211,-9.681,-0.945,1.202,-0.00748,-0.000573,-0.002249,-0.13733755506180978,0.46226628428899263,0.5041536519027254,-0.7164337887428525
326,8.148375511169434,0.7565,-0.0422,0.1196,-9.679,-0.908,1.223,-0.016458,-0.001523,-0.005266,-0.11345545186187558,0.46011177126837477,0.5267547262212162,-0.7056588954918006
327,8.175635576248169,0.7493,-0.0379,0.1134,-9.663,-0.889,1.192,-0.003283,-0.003933,-0.002794,-0.10604915311668059,0.46305802391006745,0.5298274020079615,-0.7025765208838339
328,8.199979782104492,0.7543,-0.0371,0.1124,-9.668,-0.928,1.209,0.003367,-0.000997,0.000278,-0.10909120308426043,0.46517785195605,0.5239841894923439,-0.7050881112465558
329,8.224971294403076,0.7578,-0.0425,0.1217,-9.695,-0.932,1.204,0.003592,-0.00434,-0.002645,-0.11547526621478305,0.46942675702273673,0.5129346568440531,-0.7093673381908804
330,8.248166561126709,0.7576,-0.0392,0.1191,-9.655,-0.941,1.202,-0.002181,-0.002228,-0.0035,-0.10693895037391571,0.4691989706954801,0.5164593552869234,-0.708298045407329
331,8.273605823516846,0.7524,-0.0373,0.1145,-9.688,-0.959,1.232,-0.002657,-0.003442,0.000435,-0.10641535820898534,0.47252811085881163,0.5126772442763478,-0.7089111363116438
332,8.303074359893799,0.7553,-0.0357,0.1105,-9.666,-0.894,1.232,-0.004513,-0.003297,0.005338,-0.13076951360230565,0.4832970420199185,0.48633941338186404,-0.716098651359153
333,8.3253812789917,0.7576,-0.0398,0.1225,-9.657,-0.921,1.22,-5.8e-05,-0.000307,0.00388,-0.1528534833390536,0.48903593767100795,0.4665921837012507,-0.7209517309822164
334,8.348104476928711,0.7607,-0.0406,0.1175,-9.651,-0.952,1.22,-0.010781,-0.002992,0.00428,-0.17905958203532168,0.4969103117069168,0.4400215118580786,-0.7262223332443044
335,8.374515771865845,0.755,-0.0376,0.1121,-9.636,-0.93,1.173,-0.015112,-0.001254,0.003021,-0.19812617541326497,0.5042557326181807,0.4212279462802978,-0.7273508039524645
336,8.398587942123413,0.7581,-0.0381,0.1092,-9.676,-0.922,1.211,-0.008669,-0.000988,0.002981,-0.2111700937869237,0.5086947905890806,0.40903081570922484,-0.7275510932696063
337,8.423787593841553,0.7612,-0.0403,0.1209,-9.682,-0.919,1.243,-0.008602,8.4e-05,0.004137,-0.22890846507810828,0.5131992700372392,0.39270189867016286,-0.7280196718699835
338,8.456756830215454,0.7633,-0.039,0.1188,-9.658,-0.926,1.214,-0.013014,-0.000122,0.004962,-0.24405890660553567,0.5168136531529102,0.3804363427865973,-0.7270537030429131
339,8.480353355407715,0.7566,-0.0376,0.1103,-9.664,-0.92,1.213,-0.015078,-0.001903,0.003746,-0.26279384340848067,0.5214752541469148,0.36367047627912663,-0.7257732013941564
340,8.504085779190063,0.7605,-0.0379,0.1093,-9.677,-0.929,1.261,-0.012896,0.000239,0.00706,-0.2796126411352966,0.5251055426800822,0.3492614364877324,-0.7239457085628215
341,8.525894403457642,0.764,-0.0414,0.1186,-9.67,-0.899,1.21,-0.013615,-0.000659,0.005671,-0.2999463080026987,0.5285058583818769,0.3320808793551444,-0.7214125446222152
342,8.547728776931763,0.7654,-0.0395,0.1165,-9.677,-0.929,1.207,-0.010071,3.3e-05,0.003241,-0.3135802876822765,0.5307844437645055,0.3219553839311956,-0.7185262752275812
343,8.57300329208374,0.7597,-0.0357,0.1116,-9.671,-0.911,1.23,-0.009038,0.001097,0.002358,-0.3160461455031198,0.5326081464351721,0.3212965485260612,-0.7163881100135259
344,8.598567962646484,0.7618,-0.0365,0.1087,-9.669,-0.905,1.229,-0.013377,0.00058,0.003978,-0.3201376877679589,0.5345057884955888,0.31976777018743086,-0.7138375137835306
345,8.623635053634644,0.768,-0.0392,0.1218,-9.683,-0.91,1.252,-0.006721,0.000383,-0.000348,-0.32132671533330104,0.5363387219740076,0.3203328909012283,-0.7116718038051398
346,8.65350890159607,0.7677,-0.0381,0.1152,-9.665,-0.937,1.192,-0.009567,0.001543,0.001641,-0.319016116834439,0.5385960074387937,0.32239212316021376,-0.7100749093547216
347,8.676929950714111,0.7623,-0.0376,0.1114,-9.676,-0.867,1.18,-0.016388,0.000644,0.001498,-0.3145428588150332,0.541523158633588,0.32915272797533657,-0.7067347029107611
348,8.697643280029297,0.7633,-0.0373,0.1077,-9.662,-0.863,1.21,-0.017695,-0.000175,0.001386,-0.3093729738102897,0.5450308322171635,0.3383133650863537,-0.7019785053777583
349,8.723242044448853,0.7685,-0.0398,0.1208,-9.651,-0.899,1.233,-0.000749,0.001403,0.002743,-0.3156791012806105,0.5465174185156779,0.3333906530127322,-0.7003685378123218
350,8.757561683654785,0.7688,-0.0395,0.1146,-9.662,-0.936,1.207,-0.000806,-0.00132,0.000968,-0.32372401675490703,0.5467334701684718,0.32397813536577647,-0.7009446778302293
351,8.774792432785034,0.7625,-0.0387,0.1117,-9.692,-0.903,1.244,-0.016817,-0.004763,0.000918,-0.3315275124491409,0.5505167025231102,0.31366243063405885,-0.6990255705917349
352,8.798039197921753,0.7629,-0.036,0.1058,-9.697,-0.899,1.184,-0.009203,-0.003761,0.002335,-0.34702136422298413,0.5544050520134819,0.2972496337683745,-0.6955960510952565
353,8.824913740158081,0.7685,-0.039,0.1205,-9.645,-0.917,1.229,-0.001176,-0.004698,0.004797,-0.3732530896091752,0.5547792115985881,0.26906099825649177,-0.6931870863572647
354,8.857434511184692,0.768,-0.0395,0.1146,-9.659,-0.918,1.193,-0.007474,-0.003775,0.005235,-0.4036750367753259,0.5526701564178372,0.23843880599629222,-0.6890203906159709
355,8.875423669815063,0.7618,-0.036,0.1117,-9.665,-0.935,1.219,-0.004192,-0.003396,0.004204,-0.43054781090022787,0.5498599809916189,0.2100652345346561,-0.684218664662707
356,8.898715734481812,0.7628,-0.0368,0.1077,-9.657,-0.949,1.199,-0.013344,-0.006128,0.007468,-0.4657852217106254,0.5453391555642566,0.17390886665447655,-0.6748370460662353
357,8.924302339553833,0.7685,-0.0398,0.1197,-9.659,-0.907,1.228,-0.015997,-0.004832,0.006468,-0.4993245533500564,0.5407013753666151,0.14132182465931156,-0.6620763966291053
358,8.955638647079468,0.768,-0.04,0.1138,-9.674,-0.941,1.245,-0.004345,-0.00484,0.005702,-0.5370674879821808,0.5309523155328885,0.10323614521416993,-0.647294716728086
359,8.973892211914062,0.7623,-0.0373,0.1109,-9.675,-0.939,1.242,-0.009606,-0.005112,0.002228,-0.5574413403959682,0.5251101355975536,0.08028647751151852,-0.6380223969729101
360,9.004242420196533,0.7636,-0.037,0.1061,-9.669,-0.904,1.258,-0.018601,-0.001466,0.003072,-0.5654211146453688,0.5258243551018418,0.07164898830258218,-0.6314064722269939
361,9.027801513671875,0.7685,-0.0398,0.1197,-9.649,-0.86,1.222,-0.019031,-0.001545,0.002757,-0.5745827071615985,0.5270341182865923,0.06337722633814388,-0.6229551171428057
362,9.052249908447266,0.7662,-0.0398,0.1138,-9.662,-0.885,1.226,-0.017454,-0.003664,0.005523,-0.5953843879763973,0.5217005849778396,0.04439191281143509,-0.6094056844702822
363,9.076793909072876,0.7613,-0.0381,0.1125,-9.659,-0.936,1.259,-0.016304,-0.003004,0.004412,-0.6158495323367867,0.5153149785251152,0.02364433462765919,-0.5955004381763597
364,9.099977970123291,0.7626,-0.0373,0.1058,-9.686,-0.932,1.245,-0.020568,-0.002701,0.003358,-0.6299596975572581,0.5122547384120621,0.009307011313111097,-0.5836602110546643
365,9.12401556968689,0.769,-0.0403,0.1216,-9.674,-0.911,1.201,-0.033258,-0.00216,0.003907,-0.6337123865851599,0.5171212074887714,0.00562911195466953,-0.5752934737614338
366,9.158896207809448,0.768,-0.039,0.1138,-9.678,-0.873,1.2,-0.019019,0.000116,0.004571,-0.6411533430548776,0.5189088185810462,0.001039380033099585,-0.5653803572618384
367,9.176681756973267,0.762,-0.0387,0.1127,-9.71,-0.872,1.259,-0.001555,0.004638,0.001731,-0.6389807036516479,0.5224280695078188,0.006033216554098109,-0.564567243868425
368,9.200629472732544,0.7631,-0.0376,0.104,-9.676,-0.87,1.233,0.005083,0.009525,0.000444,-0.621781835967714,0.5305423621909505,0.029346947125511946,-0.5753702347844188
369,9.225228309631348,0.769,-0.0411,0.1184,-9.7,-0.84,1.252,0.009705,0.008978,-0.003192,-0.5876744130419376,0.5456787648695682,0.06826976024979697,-0.5934751129252783
370,9.254012823104858,0.7677,-0.04,0.1149,-9.651,-0.877,1.25,0.018403,0.012965,-0.005672,-0.5433339920387197,0.5585334879099306,0.11623820573018903,-0.6158873237103214
371,9.275295734405518,0.7615,-0.0384,0.1127,-9.636,-0.827,1.234,0.025502,0.015265,-0.007225,-0.48073009575050263,0.5711170665063537,0.1834272321293446,-0.6395923091300093
372,9.299245357513428,0.7616,-0.0357,0.1061,-9.661,-0.921,1.266,0.031167,0.009786,-0.005941,-0.4326999290041644,0.5721949896344758,0.2327548179272565,-0.656649723984289
373,9.324290037155151,0.7685,-0.0403,0.1205,-9.662,-0.966,1.244,0.017823,0.00921,-0.002261,-0.4006974251427563,0.5699092834935884,0.26696733616984847,-0.6658629164401374
374,9.353383302688599,0.7669,-0.04,0.1152,-9.674,-0.989,1.261,-0.002107,0.005663,-0.00239,-0.3749268240996566,0.5689893986839092,0.2951709779285849,-0.6697425136159056
375,9.373506546020508,0.7618,-0.0376,0.1117,-9.643,-0.931,1.235,-0.024781,0.004155,-0.000581,-0.35474797660378776,0.5742037419849749,0.31589569059863337,-0.6668237011738436
376,9.405022382736206,0.7621,-0.0357,0.1053,-9.646,-0.898,1.184,-0.027554,0.006405,0.002207,-0.3273468128805266,0.579726296665299,0.34867141443570787,-0.6596891160289838
377,9.429685592651367,0.7674,-0.0403,0.1197,-9.669,-0.915,1.173,-0.02013,0.005276,0.0025,-0.3205518503325816,0.5836554731684327,0.3610059073626861,-0.6528916715184341
378,9.45865273475647,0.7662,-0.0387,0.1149,-9.668,-0.943,1.25,-0.009885,0.007214,-0.000423,-0.30237012796553564,0.5841286119776523,0.38405894551377506,-0.6479697498757285
379,9.473854780197144,0.761,-0.0376,0.1114,-9.657,-0.934,1.266,-0.039805,0.008811,0.000251,-0.26712627014187723,0.5844195962166254,0.4258225709195387,-0.6370026918730873
380,9.501316785812378,0.7618,-0.0362,0.1064,-9.62,-0.876,1.237,-0.0584,0.007542,0.001335,-0.22903307554220087,0.5890339978039977,0.4709447961134771,-0.6154622642797495
381,9.524259090423584,0.7672,-0.0409,0.1226,-9.663,-0.917,1.254,-0.049688,0.004176,0.00239,-0.20887571757550288,0.5961818220203778,0.49528335662140893,-0.5963493660209689
382,9.54940152168274,0.7659,-0.0406,0.1165,-9.653,-0.949,1.286,-0.049147,-1.6e-05,0.001907,-0.1995038244665583,0.6056225661990303,0.5048667639283482,-0.5818325205883866
383,9.575035333633423,0.7604,-0.04,0.1122,-9.641,-0.931,1.286,-0.070592,-0.005557,0.004176,-0.20412762907795462,0.622881612366469,0.4961496918048248,-0.5693732443175901
384,9.6052086353302,0.7594,-0.0376,0.1066,-9.633,-0.892,1.197,-0.082745,-0.008904,0.007222,-0.22753896930871942,0.6499846570653348,0.4653688862747869,-0.5560375551282029
385,9.623582363128662,0.7655,-0.0438,0.1204,-9.709,-0.906,1.161,-0.082294,-0.009706,0.005585,-0.25399259894694226,0.6765777224041528,0.42794388274338635,-0.5427654912106163
386,9.651789665222168,0.7638,-0.0411,0.117,-9.686,-0.902,1.148,-0.072849,-0.005807,0.003699,-0.26294474289441594,0.6972780944234956,0.40778807201005324,-0.5276099028142401
387,9.67336368560791,0.757,-0.0411,0.1119,-9.712,-0.88,1.2,-0.058593,-0.001606,0.005323,-0.26811702933943116,0.7142780767554764,0.3916419090032709,-0.514331316134814
388,9.701144933700562,0.7576,-0.0392,0.1063,-9.661,-0.904,1.23,-0.050435,-0.00013,0.0062,-0.27022687292563025,0.7271270418617468,0.3826265704828756,-0.5018571606570276
389,9.723344802856445,0.7637,-0.046,0.1212,-9.693,-0.913,1.215,-0.044931,0.001983,0.004423,-0.2696926779927312,0.7376904687074533,0.3782524911426681,-0.4899017092842733
390,9.747751712799072,0.7619,-0.0441,0.1162,-9.672,-0.986,1.196,-0.040442,0.002693,0.000833,-0.2535663795896431,0.7461441592582783,0.3866546883036842,-0.47903145696221117
391,9.774352312088013,0.756,-0.0416,0.1142,-9.636,-0.964,1.197,-0.054291,0.001076,0.001089,-0.22593694678263404,0.7546982738003494,0.40425532231312256,-0.464715661434847
392,9.799030065536499,0.7547,-0.0408,0.106,-9.656,-0.925,1.219,-0.05801,0.002481,0.004103,-0.20534774937938538,0.7652173382573756,0.41336799771318034,-0.4487779245035505
393,9.82417607307434,0.7608,-0.046,0.1215,-9.668,-0.899,1.159,-0.045099,0.00169,0.005261,-0.1987042581868654,0.7766619288116144,0.4095202578596546,-0.4354377389657358
394,9.847487449645996,0.7598,-0.0441,0.1151,-9.687,-0.933,1.189,-0.029232,0.003696,0.002614,-0.18614599113954328,0.7823735341914579,0.41600085435313383,-0.42448158046834883
395,9.874892473220825,0.7547,-0.043,0.1153,-9.704,-0.944,1.189,-0.038449,0.010533,-0.000138,-0.14492380817244183,0.780233890729358,0.45266104549886954,-0.4066080956769008
396,9.89893388748169,0.7534,-0.0416,0.107,-9.68,-0.849,1.194,-0.05266,0.010686,-0.001988,-0.08128823818919106,0.7714140185371723,0.5086357884949799,-0.37363387025070216
397,9.927295684814453,0.7598,-0.0473,0.1246,-9.686,-0.816,1.177,-0.029883,0.006951,0.00037,-0.03635204963172681,0.7625784161610497,0.5451832085250754,-0.34630616055043184
398,9.947693586349487,0.7582,-0.0457,0.1164,-9.658,-0.881,1.211,-0.007026,0.011004,0.003007,-0.013344792484977636,0.753423311972461,0.5701110053342431,-0.32733571617951995
399,9.974159955978394,0.7523,-0.0433,0.1177,-9.648,-0.935,1.245,-0.002852,0.004986,0.000237,0.0017804979095366602,0.7452853716400123,0.5878693474236919,-0.314573004255364
400,9.998019456863403,0.751,-0.0419,0.1062,-9.633,-0.938,1.221,-0.020185,-0.001614,-0.002804,0.016754863432247052,0.7391960608856966,0.6002489046800754,-0.30497493430248657
401,10.024237394332886,0.7564,-0.0465,0.1222,-9.703,-0.904,1.172,-0.027464,-0.000256,-0.002334,0.039455351813936,0.7337870010326913,0.6126380205499267,-0.2909889484247727
402,10.049205541610718,0.7554,-0.046,0.1177,-9.674,-0.876,1.176,-0.016358,-0.000763,-0.004544,0.05768587016693076,0.7292027874411156,0.6215342941918884,-0.2804117620831593
403,10.075523614883423,0.751,-0.0435,0.1171,-9.672,-0.886,1.207,-0.003965,0.003232,-0.000353,0.0660710995246622,0.7260864273148961,0.6272166443127352,-0.2739204099255185
404,10.105072736740112,0.749,-0.0424,0.1086,-9.693,-0.959,1.213,0.002593,-0.000214,-0.000347,0.06845580287570419,0.7237424259672841,0.6300299751521767,-0.27308045392773994
405,10.123719930648804,0.7566,-0.0479,0.1238,-9.67,-0.938,1.173,-0.007942,0.00044,0.003615,0.0585323327897201,0.7312296410787804,0.6196778775777996,-0.27906362368941084
406,10.14926528930664,0.7546,-0.0446,0.1179,-9.65,-0.967,1.18,-0.012418,-0.000788,0.003286,0.04783640919256871,0.7415166536549389,0.6060590130401156,-0.2838260083586133
407,10.176714181900024,0.7492,-0.0449,0.1181,-9.679,-1.01,1.184,-0.000742,-0.001565,0.001694,0.03288679218048071,0.7527743806178044,0.5885756050908514,-0.2929640726735905
408,10.199511766433716,0.7471,-0.0419,0.1088,-9.678,-1.012,1.134,-0.0042,-0.00077,0.0006,0.026387823496381163,0.7567318119307874,0.5816079594943688,-0.2973093154206033
409,10.224498748779297,0.7551,-0.0468,0.1267,-9.644,-0.999,1.208,-0.011156,-0.002337,-0.000154,0.02162721163772141,0.7619097995655664,0.5731422795654433,-0.3008880994942522
410,10.249551057815552,0.7517,-0.0457,0.1187,-9.632,-0.941,1.212,-0.025721,-0.002762,0.005725,0.008420676042809161,0.7744330889806239,0.5536618840182652,-0.3060081716102627
411,10.272884368896484,0.7481,-0.0444,0.1187,-9.679,-0.933,1.195,-0.023442,-0.003424,0.006404,-0.012532240482408169,0.7924458103936682,0.5232320490930057,-0.31321047769822075
412,10.298551082611084,0.7453,-0.0446,0.1067,-9.697,-0.941,1.174,-0.011613,-0.003292,0.006059,-0.04243691101326916,0.8100029197704202,0.487052223270732,-0.32384334230316186
413,10.323723316192627,0.7546,-0.0473,0.124,-9.689,-0.948,1.197,-0.000384,-0.001567,0.005,-0.07712733348545925,0.8235551407707643,0.45110404848288227,-0.33513197696105107
414,10.366796970367432,0.751,-0.0462,0.119,-9.66,-0.971,1.127,-0.010791,-0.001283,0.008946,-0.11239079975344418,0.8347358861784155,0.4163538743876657,-0.3423941584476821
415,10.375964641571045,0.7471,-0.0449,0.1176,-9.655,-1.001,1.123,-0.025022,-0.003022,0.005887,-0.13581200932134935,0.8449816410074867,0.38636528754395205,-0.34392294059203427
416,10.414660692214966,0.7443,-0.0438,0.1104,-9.657,-0.985,1.16,-0.020006,-0.004111,0.001356,-0.14719566642098383,0.852037119482704,0.3662889997849905,-0.3438001620811282
417,10.427708387374878,0.7517,-0.0476,0.1232,-9.669,-0.944,1.138,-0.012892,-0.006347,0.000912,-0.1553696892806819,0.857053539949112,0.348560305218712,-0.3461577717448487
418,10.448224067687988,0.7509,-0.047,0.1176,-9.667,-0.89,1.163,-0.016714,-0.005776,0.002827,-0.1761444533859179,0.8627649548329577,0.3201081036353435,-0.3494861459921479
419,10.475143432617188,0.7463,-0.047,0.117,-9.687,-0.904,1.21,-0.012659,-0.003084,0.006137,-0.20345830000342224,0.8680852770995704,0.2861181112289048,-0.3509545529972275
420,10.503968954086304,0.7448,-0.0438,0.1096,-9.677,-0.918,1.176,-0.005059,-0.010383,0.005984,-0.24276328019135052,0.8717329363021654,0.23995427593950058,-0.35152471181282635
421,10.523597002029419,0.7519,-0.0492,0.1248,-9.671,-0.954,1.203,0.007467,-0.006938,0.005265,-0.29040878206393983,0.868750056307272,0.18959100191448058,-0.3535411305057931
422,10.549475193023682,0.7496,-0.0487,0.1184,-9.661,-0.9,1.181,-0.00208,0.002134,0.004414,-0.31413053678862024,0.8658433201860272,0.16825118015636714,-0.3511821338310361
423,10.577831506729126,0.7465,-0.0468,0.1192,-9.633,-0.86,1.196,0.004411,-0.004742,0.001152,-0.31649415237303474,0.8658364296922051,0.16579126838770702,-0.35024560505154767
424,10.599220991134644,0.743,-0.0424,0.1077,-9.626,-0.932,1.179,0.004883,-0.009297,0.001535,-0.35214354987319496,0.8584486453094593,0.1287542605230937,-0.3499759763843944
425,10.626850128173828,0.7504,-0.0492,0.1251,-9.67,-0.961,1.224,0.004345,-0.011655,0.003157,-0.39550875646212413,0.847565192401087,0.08259227049979337,-0.34407061055193505
426,10.64837121963501,0.7491,-0.0489,0.1171,-9.675,-0.941,1.238,-0.003659,-0.017015,0.000621,-0.4503977839103872,0.8279743361962246,0.02011711965511817,-0.33346009708181734
427,10.676513671875,0.7452,-0.0476,0.1178,-9.657,-0.94,1.187,-0.02002,-0.014987,0.000994,-0.4920066631458716,0.8095513608993935,-0.03524268126025085,-0.3182985876556681
428,10.702181816101074,0.744,-0.0438,0.1064,-9.674,-0.887,1.212,-0.012588,-0.012741,-0.000414,-0.5170166656041503,0.7962697099662162,-0.07253924524378354,-0.3055918427860054
429,10.72317886352539,0.7511,-0.0498,0.1253,-9.674,-0.859,1.207,0.005899,-0.011216,0.001168,-0.5488393355971463,0.776211437854388,-0.10922579836203339,-0.2904150691983512
430,10.753574132919312,0.7488,-0.0479,0.1168,-9.672,-0.868,1.189,0.017487,-0.008152,0.000745,-0.586439505898264,0.7487737907652628,-0.14600822140494646,-0.272228057824653
431,10.77735686302185,0.7466,-0.0457,0.1171,-9.649,-0.939,1.2,0.016471,-0.008199,0.001523,-0.6203914781768822,0.7204944646704267,-0.17769853533574786,-0.2538215332163695
432,10.799513339996338,0.7437,-0.0433,0.1088,-9.661,-0.967,1.224,0.00845,-0.015336,-0.002228,-0.6471036834558904,0.6945202254501186,-0.20661106363968904,-0.23708721534534774
433,10.824239730834961,0.7522,-0.0481,0.1248,-9.704,-0.978,1.247,-0.005501,-0.012261,-0.005846,-0.6591337938221131,0.6789849178256544,-0.22676332079823935,-0.2304354997553808
434,10.8519127368927,0.7507,-0.0473,0.115,-9.674,-0.92,1.257,-0.007139,-0.008102,-0.003774,-0.6652615858879993,0.6691683470381544,-0.2421650890775249,-0.22582474464965652
435,10.874025106430054,0.7468,-0.046,0.1163,-9.679,-0.895,1.223,0.002138,-0.004196,-0.00313,-0.6666079700231283,0.6654031227841429,-0.24835533569922796,-0.2262567694467475
436,10.9008309841156,0.7435,-0.0419,0.1072,-9.686,-0.907,1.252,0.006907,-0.006047,-0.006038,-0.6654553614356825,0.6642269542152011,-0.24987874517750291,-0.2313705425049156
437,10.928963661193848,0.7522,-0.0492,0.1243,-9.692,-0.88,1.209,0.008464,-0.002426,-0.010086,-0.646305998057022,0.6798966404720007,-0.23373712435173072,-0.2557265567949234
438,10.952101945877075,0.7499,-0.0462,0.1142,-9.654,-0.845,1.22,0.007116,-0.001141,-0.010953,-0.6179884026216161,0.7026228681551883,-0.20822759015994022,-0.28469757650311023
439,10.976532936096191,0.7468,-0.0452,0.1168,-9.645,-0.825,1.256,0.02294,-0.001317,-0.011623,-0.5867608140820008,0.7238275059176702,-0.17668142120870323,-0.31712641664564256
440,11.013623714447021,0.7443,-0.04,0.1038,-9.672,-0.871,1.24,0.033541,-0.003554,-0.010466,-0.566220030910202,0.7344203070696785,-0.15244939855627032,-0.34173216126019024
441,11.024198770523071,0.7522,-0.0476,0.1235,-9.686,-0.898,1.349,0.036816,-0.005008,-0.009311,-0.5548168179706107,0.736941510929833,-0.13704779072732065,-0.3609894887973635
442,11.051933765411377,0.75,-0.0441,0.1147,-9.67,-0.933,1.33,0.025339,-0.006266,-0.011063,-0.5485693293784772,0.7355484483939765,-0.12947937337238052,-0.37586601708794737
443,11.076509237289429,0.7476,-0.0433,0.1171,-9.641,-0.907,1.273,0.022183,-0.009179,-0.006111,-0.5541058339256213,0.7272778664663733,-0.13733948184900963,-0.3810137746632756
444,11.102468967437744,0.7448,-0.0411,0.1067,-9.623,-0.95,1.237,0.031544,-0.011015,-0.004724,-0.5772397551793893,0.7065658306885946,-0.16216235333735962,-0.3758488567281592
445,11.12435793876648,0.7528,-0.0454,0.1235,-9.681,-1.023,1.271,0.029327,-0.009967,-0.006775,-0.5969497326927216,0.6869051010668995,-0.18289704762646658,-0.37196917713149696
446,11.148870706558228,0.7518,-0.0441,0.1145,-9.629,-1.014,1.315,0.016561,-0.008747,-0.004953,-0.606253538076927,0.6746798723278405,-0.19555177357659415,-0.3728581785289752
447,11.174551010131836,0.7489,-0.0441,0.1158,-9.644,-1.008,1.284,0.006817,-0.009879,-0.006996,-0.6143059882675328,0.6638041795538012,-0.20976966887649395,-0.3714685047281949
448,11.200188398361206,0.7456,-0.0397,0.1022,-9.66,-1.01,1.275,0.007883,-0.00765,-0.003854,-0.6214224720782888,0.6538294208425428,-0.22351348688094336,-0.36930058329108517
449,11.224281787872314,0.7538,-0.0462,0.1219,-9.642,-0.983,1.276,-0.000252,-0.005348,-0.006183,-0.6229197882188772,0.6491850407952233,-0.2305168743189913,-0.3706638516327912
450,11.249689817428589,0.7515,-0.0433,0.1161,-9.641,-1.011,1.239,0.004914,-0.004174,-0.002752,-0.6195251503813314,0.6491841535223413,-0.23186381040930423,-0.37548328362651257
451,11.276567459106445,0.7497,-0.0435,0.1155,-9.658,-1.038,1.266,0.001016,-0.001866,0.001496,-0.6335029453818548,0.6357227111138393,-0.2480207852776415,-0.36471405626442016
452,11.299977779388428,0.7454,-0.04,0.1014,-9.66,-1.05,1.295,-0.009982,-0.001751,-0.000227,-0.6411202550868518,0.6280536616964373,-0.2589014361590654,-0.35704826410702606
453,11.324538469314575,0.7539,-0.0436,0.1206,-9.68,-1.039,1.28,-0.020507,-0.002974,-0.001279,-0.6410654853097887,0.6270414788976901,-0.26481965979780747,-0.35457661382400313
454,11.35085129737854,0.7513,-0.0425,0.1137,-9.67,-0.981,1.238,-0.020521,0.000838,-0.001053,-0.6243518532322965,0.6417018507504073,-0.25546418940512294,-0.36488566159892116
455,11.373167753219604,0.7505,-0.0441,0.1168,-9.647,-0.906,1.291,-0.010282,0.001893,0.00343,-0.6204438490528713,0.6459754903643604,-0.2536717724669862,-0.3652611776173855
456,11.399306535720825,0.7456,-0.0411,0.103,-9.678,-0.935,1.271,-0.001266,0.004508,0.005134,-0.6252341978500204,0.6442571371155329,-0.2552153861394406,-0.3589986710173665
457,11.424980163574219,0.7536,-0.0444,0.1206,-9.676,-0.894,1.289,-0.004495,0.004842,0.009478,-0.6375554964463869,0.6363742206580558,-0.26201800504915607,-0.34626204710148867
458,11.451832294464111,0.7512,-0.0454,0.115,-9.678,-0.906,1.313,-0.005629,0.005656,0.008895,-0.6547876781083631,0.6240256914247919,-0.2735900836986333,-0.32709860767212684
459,11.473758459091187,0.75,-0.0441,0.1176,-9.657,-0.925,1.27,-0.005486,0.000795,0.006462,-0.6714583138903225,0.6094369866607791,-0.28794607089328017,-0.3079242638288129
460,11.498046875,0.7448,-0.04,0.1022,-9.673,-0.917,1.257,-0.009132,0.000686,0.003472,-0.6848971849611344,0.5960216364597869,-0.3014909903324263,-0.2911653098370137
461,11.523395776748657,0.7536,-0.0444,0.1222,-9.697,-0.899,1.232,-0.002277,0.001884,0.002894,-0.6887454137774439,0.5923913665672588,-0.3052197631288015,-0.2855575598941686
462,11.553786993026733,0.7502,-0.0441,0.1131,-9.668,-0.888,1.294,0.000415,0.001255,0.004899,-0.6956948998005592,0.5863054808414047,-0.3089096969846292,-0.27718096730418534
463,11.573271751403809,0.749,-0.0427,0.1168,-9.658,-0.928,1.301,-0.006621,0.000495,0.004451,-0.7108898022992608,0.5683010802912859,-0.3243622944650447,-0.25779579720400186
464,11.599792003631592,0.7438,-0.0397,0.1027,-9.663,-0.95,1.26,-0.017972,-0.004653,0.00379,-0.7236642090434674,0.5508845260670931,-0.3414422309819713,-0.2371783177092313
465,11.638814687728882,0.7536,-0.0452,0.1232,-9.671,-0.886,1.276,-0.010976,-0.003613,0.001139,-0.7313841567130828,0.5380991978589429,-0.3548587600593571,-0.22271445615808272
466,11.648654699325562,0.7494,-0.0441,0.1158,-9.649,-0.881,1.254,-0.003296,-0.002334,-0.001391,-0.7360984794776376,0.5300391852282244,-0.36204249699919644,-0.21480856826462222
467,11.673447132110596,0.7481,-0.0441,0.1173,-9.654,-0.903,1.292,-0.003633,-0.000995,-0.001239,-0.7340083197606819,0.5311485827029079,-0.36327404083155723,-0.21712885776124952
468,11.702378988265991,0.7425,-0.0403,0.1038,-9.665,-0.894,1.304,-0.002862,-0.002913,-0.001661,-0.735631380253543,0.5272618714335292,-0.3669247375108105,-0.21495959695092143
469,11.72343134880066,0.7525,-0.0463,0.1232,-9.639,-0.931,1.3,-0.006475,-0.00499,-0.000118,-0.7427959303231947,0.5130804055498219,-0.37923223028312697,-0.20294240279107606
470,11.7489333152771,0.7481,-0.0454,0.1152,-9.678,-0.924,1.274,-0.009356,-0.004351,-0.000736,-0.7492433723789114,0.4991741204001362,-0.391271006533031,-0.1907001990446129
471,11.774036645889282,0.7471,-0.0454,0.1179,-9.641,-0.971,1.271,0.001702,-0.003963,-0.002921,-0.7518250784657127,0.4913952131879088,-0.3985052356693727,-0.18569699241003462
472,11.798096179962158,0.7423,-0.0389,0.1043,-9.643,-0.945,1.24,0.000741,-0.003153,-0.001895,-0.7557747640507282,0.4809305251779842,-0.4063980604098308,-0.17986370526379675
473,11.824478387832642,0.7512,-0.0454,0.1232,-9.679,-0.943,1.266,-0.002049,-0.005664,-0.002353,-0.7604734361370551,0.4694814253526236,-0.4144945331322351,-0.17164389351870235
474,11.852882862091064,0.7473,-0.0452,0.1149,-9.674,-0.959,1.252,0.003438,-0.004226,-0.002288,-0.7652252762265751,0.4565965830065224,-0.42352094823486947,-0.16303325862218018
475,11.873742580413818,0.7461,-0.0433,0.1181,-9.668,-0.963,1.287,-0.01046,-0.000629,-0.003109,-0.761253511455769,0.4603942917542043,-0.4237642837546335,-0.1701588059147352
476,11.897664546966553,0.741,-0.0387,0.1037,-9.672,-0.926,1.268,-0.019462,-0.002272,-0.004394,-0.7478825661477488,0.48053412023125447,-0.41750725332154814,-0.18827193091305244
477,11.923372268676758,0.7505,-0.0449,0.1227,-9.645,-0.939,1.264,0.003261,-0.003456,-0.006076,-0.7395559448642175,0.4895753623858088,-0.4160171535103676,-0.20075531610876324
478,11.949267864227295,0.7466,-0.0443,0.1149,-9.66,-0.947,1.28,0.008276,-0.000225,-0.004161,-0.7336648749888899,0.4975455549316845,-0.41092383142006095,-0.21289874763914404
479,11.97395133972168,0.7461,-0.0441,0.1184,-9.661,-0.941,1.327,0.004,-0.004708,-0.001968,-0.7373779077461574,0.4879775665851144,-0.41764797099367307,-0.20909779530745323
480,11.999386310577393,0.7397,-0.0395,0.1029,-9.663,-0.941,1.217,-0.000409,-0.003686,4.1e-05,-0.7459095370569787,0.47032548709654853,-0.4294642899819724,-0.19486744814134133
481,12.023930072784424,0.7499,-0.0452,0.1221,-9.662,-0.958,1.257,0.008268,-0.00362,-0.000644,-0.7527904067673923,0.45515394245795,-0.4389937555146562,-0.1828277188040905
482,12.049962282180786,0.7453,-0.0433,0.1149,-9.653,-0.988,1.263,0.009662,-0.001144,0.000428,-0.7586851687080712,0.4428727404081027,-0.4445087153997289,-0.17513581164200973
483,12.073525428771973,0.7456,-0.0427,0.1197,-9.652,-0.931,1.263,-0.004116,-0.001381,-0.00129,-0.7624047547315617,0.4344544678743212,-0.4493914381657841,-0.16743846813094038
484,12.09915018081665,0.7392,-0.0392,0.1056,-9.648,-0.914,1.255,0.003865,-0.004147,-0.00131,-0.7647712738862411,0.42712338436745034,-0.45420002590400416,-0.1624587628714229
485,12.124109745025635,0.7479,-0.0444,0.1221,-9.658,-0.97,1.276,0.013321,-0.001279,-0.00485,-0.7640985484205128,0.4274653766923159,-0.4532354871990383,-0.16734501239777733
486,12.15018606185913,0.7456,-0.043,0.1149,-9.632,-0.951,1.285,0.008297,-0.001689,-0.00644,-0.7571124913239002,0.43763320743874295,-0.4487618134066932,-0.18403990343436777
487,12.173891067504883,0.7448,-0.0433,0.1186,-9.625,-0.899,1.322,0.005311,-0.003836,-0.002879,-0.755720315368811,0.4367167718115605,-0.4503165461079285,-0.1880964498835108
488,12.200605869293213,0.7387,-0.0384,0.1037,-9.609,-0.897,1.29,-0.004561,-0.009609,0.000244,-0.7670061240161986,0.408305252263677,-0.46711746750373717,-0.16367558843162278
489,12.22425889968872,0.7481,-0.0444,0.1229,-9.673,-0.911,1.319,0.007574,-0.01054,0.003957,-0.7855035764694591,0.3576987408234851,-0.4909373422397678,-0.11839032123250068
490,12.25275468826294,0.7435,-0.0441,0.1138,-9.645,-0.893,1.294,0.005702,-0.015155,0.001702,-0.8047923920857281,0.28604887817962155,-0.517235544763252,-0.0543381649172448
491,12.274547576904297,0.7443,-0.0425,0.1194,-9.656,-0.93,1.242,0.008552,-0.015572,-0.001589,-0.814836480288221,0.22037548377107477,-0.5361654654640083,0.0016583690577091637
492,12.302519798278809,0.7379,-0.0378,0.104,-9.615,-0.962,1.248,0.004505,-0.014121,-0.006803,-0.8157827981957401,0.18364326181771412,-0.5477371151966448,0.02752510114307699
493,12.324381351470947,0.7486,-0.0457,0.1213,-9.679,-0.907,1.256,-0.003642,-0.012658,-0.011491,-0.8120105998916023,0.17418335393731352,-0.5563801548872186,0.027204193105167473
494,12.353558778762817,0.7435,-0.0419,0.1117,-9.7,-0.888,1.244,0.017156,-0.012239,-0.015585,-0.8057675870861739,0.1809133570838829,-0.5638827551303028,0.006722447219846023
495,12.373411417007446,0.744,-0.043,0.12,-9.691,-0.855,1.242,0.02396,-0.01035,-0.01082,-0.8016850703650477,0.18155721606455016,-0.5694577880668634,-0.007473477013688973
496,12.403236389160156,0.7384,-0.0376,0.1019,-9.645,-0.862,1.28,0.040417,-0.014126,-0.007843,-0.8019707095407345,0.15298483165360668,-0.5773999922927718,0.006918903305836971
497,12.42459487915039,0.7479,-0.0425,0.1197,-9.624,-0.909,1.31,0.048622,-0.020621,-0.007828,-0.8024595035550994,0.08883312520717443,-0.5876378260571934,0.053377958061409575
498,12.450727939605713,0.7451,-0.0419,0.112,-9.595,-0.951,1.373,0.042895,-0.032064,-0.00524,-0.7917948433014982,-0.017439653312128933,-0.5944635485501962,0.1391756949277318
499,12.47418999671936,0.7443,-0.04,0.1181,-9.611,-0.948,1.375,0.026906,-0.039182,-0.006187,-0.7572394662364325,-0.14956358758282196,-0.5842450551179813,0.250752546574318
500,12.500019550323486,0.7379,-0.0362,0.1008,-9.638,-0.992,1.387,0.036072,-0.040475,-0.005486,-0.6969197894317871,-0.2806562438836102,-0.5524244264500192,0.3610569663209178
501,12.52341079711914,0.7485,-0.0419,0.1192,-9.667,-1.064,1.349,0.030989,-0.036484,-0.00804,-0.6160597993781057,-0.39815077622894834,-0.5025836223001182,0.45755435259014426
502,12.548231363296509,0.7443,-0.0395,0.1117,-9.652,-0.995,1.388,0.002633,-0.029715,-0.001802,-0.5438320631396214,-0.47518877005314086,-0.456129786790842,0.5199884013310556
503,12.57726526260376,0.7456,-0.0406,0.1163,-9.66,-0.816,1.432,0.003207,-0.022592,0.020089,-0.4309474781876429,-0.5666506519696568,-0.35720270709068624,0.604646620525708
504,12.599593877792358,0.7392,-0.0373,0.0997,-9.664,-0.936,1.411,0.009488,-0.018499,0.02944,-0.2377055633181297,-0.6580657111981943,-0.16506700365118654,0.6951247867961869
505,12.623572826385498,0.7487,-0.0435,0.12,-9.622,-1.12,1.398,0.045447,-0.015583,0.019599,-0.04921861466365118,-0.6877752789548177,0.025507039638254403,0.7238038992421265
506,12.65114712715149,0.7451,-0.0395,0.1091,-9.64,-1.204,1.29,0.040808,-0.016531,0.002339,0.08241793513322943,-0.6815460095477162,0.1498373476261326,0.7115132395776796
507,12.674564123153687,0.7474,-0.0419,0.1168,-9.642,-1.145,1.368,0.020664,-0.01778,-0.015758,0.11871634040420964,-0.6817984391500893,0.16717809802589448,0.7022170621922954
508,12.699134588241577,0.7392,-0.0365,0.1008,-9.615,-1.01,1.4,0.009569,-0.017483,-0.01233,0.1228949646805324,-0.6881130252066532,0.1499689433503446,0.6992185697101441
509,12.723483562469482,0.75,-0.0433,0.1147,-9.615,-0.97,1.477,0.016081,-0.014422,-0.003337,0.15321652628611043,-0.6867146333716623,0.1646396734575804,0.6912607947148618
510,12.74915099143982,0.7459,-0.0414,0.1094,-9.644,-0.975,1.5,0.024121,-0.014603,0.002362,0.20997976685009923,-0.6753498311454191,0.20957481700041639,0.6751958968808044
511,12.775185346603394,0.7461,-0.0411,0.1165,-9.632,-0.988,1.405,0.005211,-0.015248,0.00468,0.2819654734758784,-0.6525699144667629,0.27160747457943557,0.6487506132967789
512,12.800902605056763,0.7384,-0.0376,0.0989,-9.65,-0.979,1.38,0.007578,-0.011259,0.00298,0.3417691201636094,-0.6278633694141804,0.3221054927083417,0.6206685987043172
513,12.82422161102295,0.7484,-0.0427,0.1174,-9.651,-1.013,1.383,0.021633,-0.006665,-0.004739,0.3624873977811919,-0.619608040357645,0.33539910686242713,0.6100788489120608
514,12.856860399246216,0.7459,-0.0389,0.1088,-9.652,-1.037,1.357,0.014064,-0.003839,-0.009725,0.3488674732846942,-0.6303670279654899,0.3136016273233001,0.6185328734013142
515,12.874971151351929,0.7464,-0.0406,0.1165,-9.619,-0.913,1.47,0.007375,-0.004237,-0.006607,0.322872136907561,-0.646442800168283,0.2794433663255327,0.6322789687598257
516,12.90042233467102,0.739,-0.0362,0.1011,-9.632,-0.982,1.472,-0.003238,-0.002978,-2.8e-05,0.32072717933148764,-0.6494352773160558,0.2718996994676301,0.6335917064205451
517,12.926707744598389,0.749,-0.0411,0.1171,-9.636,-1.045,1.477,0.001274,-0.004309,0.005026,0.34081874975257,-0.6405759391624938,0.2899914227940469,0.6240272595721027
518,12.950511455535889,0.7443,-0.0414,0.1088,-9.606,-1.012,1.503,-0.008555,-0.004594,0.007539,0.3766321834385009,-0.6217555996977596,0.32518351061824424,0.6048337433252389
519,12.974815845489502,0.7459,-0.0406,0.1144,-9.628,-1.02,1.433,-0.015945,-0.001866,0.008622,0.407870478381706,-0.6020255941070285,0.35857549533762845,0.5853464538614138
520,12.997531175613403,0.7382,-0.0368,0.1,-9.669,-0.984,1.435,-0.034096,0.000634,0.008015,0.4260014679223518,-0.5882757290891905,0.3810301407661708,0.5720755611982521
521,13.02426266670227,0.7482,-0.0419,0.1152,-9.642,-0.909,1.458,-0.019116,0.001736,0.007232,0.4391150884016886,-0.5771555513812379,0.398460079589754,0.5615148917180411
522,13.048702478408813,0.7433,-0.0406,0.1072,-9.651,-0.914,1.521,-0.003516,0.00244,0.009974,0.45993314457535794,-0.5575210470587072,0.4259409503336534,0.5442481891898674
523,13.074578523635864,0.7466,-0.0422,0.1173,-9.629,-0.946,1.465,-0.00162,0.002378,0.012915,0.49198154593447285,-0.5255684027143162,0.4652695601707977,0.5150303378508115
524,13.10173511505127,0.7392,-0.0378,0.0984,-9.633,-0.953,1.459,-0.000604,0.003915,0.013573,0.5275708812213755,-0.48428576073090224,0.5094122403913788,0.4771115556974369
525,13.124768257141113,0.7476,-0.043,0.1163,-9.642,-0.955,1.435,0.005366,0.005915,0.012639,0.5550353007964558,-0.4449203132438598,0.5467342134154596,0.44165985737188307
526,13.149097204208374,0.7433,-0.04,0.1059,-9.628,-0.96,1.432,0.000525,0.003104,0.012703,0.5772553195362197,-0.4075570284496046,0.5781687639109673,0.4079147522045867
527,13.173670768737793,0.7463,-0.0435,0.1157,-9.625,-0.959,1.481,-0.008973,0.004142,0.015035,0.6008005543466051,-0.3632417269718441,0.610262171069086,0.3669798689919786
528,13.203063011169434,0.7384,-0.0381,0.1005,-9.642,-0.907,1.417,-0.016338,0.007718,0.011985,0.6140154087270757,-0.3284429595215328,0.6339186435474945,0.33653744746961434
529,13.248462438583374,0.7489,-0.0433,0.1163,-9.628,-0.931,1.456,-0.004522,0.010579,0.008484,0.6137935463433236,-0.3156694022705946,0.6447342705985656,0.3285240192940959
530,13.251532554626465,0.7446,-0.0414,0.1078,-9.627,-0.942,1.398,0.004994,0.010067,0.007099,0.6124174093556743,-0.3063435529278781,0.6531746622948975,0.3232048960544309
531,13.273237228393555,0.7464,-0.0419,0.1173,-9.623,-0.942,1.382,-0.002522,0.010881,0.007832,0.602982100085449,-0.31047530203298646,0.655525542906651,0.33212036432746506
532,13.304658651351929,0.7377,-0.0354,0.1008,-9.644,-0.933,1.463,-0.026985,0.007927,0.005003,0.5928154181037301,-0.31957132291749596,0.6535700230594287,0.34538424194708006
533,13.324270963668823,0.7489,-0.0438,0.1174,-9.66,-0.915,1.41,-0.033974,0.00783,0.010179,0.5872220666435541,-0.3189176442818043,0.6563910041777538,0.35016086338587016
534,13.351211547851562,0.7441,-0.0408,0.1088,-9.621,-0.923,1.467,-0.020671,0.007538,0.017036,0.5955847586077367,-0.28766328583272505,0.675587945436177,0.325744619724423
535,13.37447714805603,0.7463,-0.0433,0.1144,-9.636,-0.898,1.433,-0.040229,0.009422,0.023085,0.6124924077625926,-0.22655735568517613,0.7061318311430691,0.27368348884187116
536,13.400068283081055,0.7389,-0.04,0.0995,-9.649,-0.901,1.354,-0.061237,0.008744,0.024524,0.6215832400472521,-0.16608213348340367,0.7311981830797387,0.22671616107117243
537,13.42284369468689,0.7486,-0.046,0.12,-9.626,-0.923,1.362,-0.056517,0.009612,0.023654,0.6269908000918798,-0.10443505491698753,0.7507176001550444,0.17999705753728668
538,13.451724529266357,0.744,-0.0435,0.1099,-9.616,-0.924,1.389,-0.046684,0.012036,0.023594,0.6272878269783165,-0.040257398663176375,0.7664333634059891,0.13217118988599205
539,13.473341226577759,0.7468,-0.0465,0.1163,-9.629,-0.92,1.429,-0.060463,0.010455,0.023912,0.6237033636730837,0.021003614082807792,0.7763635964009836,0.08838850899111345
540,13.497171640396118,0.7378,-0.0408,0.1011,-9.673,-0.882,1.378,-0.073846,0.007792,0.023531,0.6182778742489139,0.08485294455996545,0.7801418127410713,0.04371727378077431
541,13.523424625396729,0.7483,-0.0487,0.1176,-9.658,-0.885,1.341,-0.053823,0.011266,0.024212,0.6084865059812103,0.15049750092648367,0.7791604132659923,-0.001929935965248153
542,13.547390222549438,0.7442,-0.0465,0.1085,-9.62,-0.883,1.437,-0.043411,0.010824,0.025165,0.5903447920710634,0.2284549121718627,0.7718464904937788,-0.05961857673205875
543,13.582101106643677,0.747,-0.0492,0.1173,-9.632,-0.889,1.384,-0.06574,0.009596,0.027076,0.565913139046197,0.3087888804992429,0.7554102740980289,-0.1172478747016123
544,13.598941087722778,0.738,-0.043,0.1002,-9.676,-0.864,1.32,-0.080866,0.00956,0.02853,0.5380006234015788,0.38491617137849343,0.7310390147539203,-0.1672627547855534
545,13.624981164932251,0.7486,-0.0489,0.1195,-9.666,-0.839,1.325,-0.066948,0.008516,0.028829,0.4996929562982959,0.4679129903932368,0.6939046805723594,-0.22329504501197475
546,13.646812677383423,0.7423,-0.0486,0.108,-9.663,-0.846,1.354,-0.054267,0.009253,0.02481,0.45804791462616967,0.5386678609663628,0.6538345338552454,-0.2693129142964269
547,13.67341136932373,0.7485,-0.0503,0.1173,-9.649,-0.838,1.341,-0.057617,0.01202,0.023879,0.42006605608496894,0.5942278168434726,0.6160277020235311,-0.30157533147501836
548,13.697957277297974,0.7385,-0.0465,0.1008,-9.641,-0.843,1.308,-0.04798,0.011503,0.024917,0.3821719911334473,0.6433901984337803,0.5779846780731,-0.3254647963531114
549,13.723146677017212,0.7475,-0.0516,0.1176,-9.688,-0.831,1.337,-0.0459,0.007745,0.023732,0.324847177859471,0.7023560321153212,0.521042083495588,-0.36011867823612786
550,13.749183416366577,0.7431,-0.0489,0.1072,-9.675,-0.862,1.26,-0.060294,0.012806,0.021272,0.2866297094696968,0.7413417574510496,0.47788146656183694,-0.3740121819211437
551,13.776468276977539,0.7456,-0.0524,0.1184,-9.647,-0.81,1.237,-0.089861,0.012676,0.02576,0.26326570606507804,0.7717929555314158,0.4420183961136519,-0.3736931084449545
552,13.799991607666016,0.7377,-0.0484,0.1021,-9.641,-0.803,1.297,-0.073346,0.010012,0.032594,0.20767608382198455,0.8193899342359211,0.36776713996386917,-0.38757981196653285
553,13.824118852615356,0.7469,-0.053,0.1186,-9.647,-1.105,1.435,-0.030303,0.028525,0.033385,0.12208789599415215,0.8637567749514965,0.28400331890718,-0.39794584333401123
554,13.848776578903198,0.7417,-0.0535,0.1082,-9.623,-1.288,1.442,-0.083878,0.034485,0.033412,0.09211255795730049,0.8885802090439375,0.24903984044481012,-0.37405834656269726
555,13.877622604370117,0.7463,-0.0559,0.1194,-9.64,-1.077,1.313,-0.189109,0.019956,0.037649,0.08373651448374088,0.9135341642598418,0.1917799483793219,-0.3488036385587334
556,13.904412269592285,0.7376,-0.051,0.101,-9.681,-0.889,1.22,-0.227532,0.015047,0.050954,0.05966162002875873,0.939301133179114,0.07831272599713515,-0.32866546707993805
557,13.924046277999878,0.7465,-0.0592,0.1191,-9.636,-0.779,1.275,-0.2391,0.014157,0.069591,-0.02997830175822705,0.9454171085381708,-0.12109132993860389,-0.3010393365005928
558,13.947626113891602,0.7421,-0.06,0.1077,-9.646,-0.693,1.312,-0.225276,0.015102,0.081045,-0.16264246618890948,0.8834585298525589,-0.3802041621488298,-0.22021182826417646
559,13.973929643630981,0.7454,-0.0632,0.1196,-9.662,-0.85,1.349,-0.206627,0.019678,0.084484,-0.2861975665884543,0.7261694228850064,-0.6224633963590446,-0.05751732207662945
560,14.00105094909668,0.7372,-0.0599,0.1026,-9.658,-1.01,1.464,-0.20879,0.019201,0.087252,-0.3301258544281219,0.48828273272567363,-0.7906422469834261,0.16577614558509335
561,14.023664236068726,0.7466,-0.0681,0.1188,-9.654,-1.02,1.394,-0.235137,0.017523,0.084946,-0.2632031082758628,0.2156607505586234,-0.8545431597692443,0.3923908160928479
562,14.052270650863647,0.7404,-0.0656,0.1087,-9.656,-0.862,1.224,-0.280601,0.012487,0.083971,-0.09222190909101421,-0.044748106252470096,-0.8270518125029391,0.5527006657369153
563,14.074987649917603,0.7455,-0.0724,0.1193,-9.685,-0.719,1.242,-0.265061,0.014735,0.083609,0.14131612791510195,-0.2624707263067141,-0.7182071757244458,0.6287426520930668
564,14.101623058319092,0.7373,-0.067,0.1025,-9.705,-0.723,1.166,-0.230669,0.018925,0.083833,0.40512895950671945,-0.39619155590132765,-0.5467729833195448,0.6163944207350786
565,14.123295783996582,0.7464,-0.0764,0.1167,-9.679,-0.681,1.2,-0.231596,0.024535,0.082346,0.6476361817857145,-0.4385821295762994,-0.3715733050501584,0.5001463492143484
566,14.151520729064941,0.7412,-0.0769,0.1065,-9.691,-0.646,1.194,-0.231899,0.027565,0.080793,0.8238508511526765,-0.4178105244044323,-0.2344433247686851,0.30288689014764014
567,14.172667980194092,0.7458,-0.0794,0.1196,-9.669,-0.631,1.228,-0.216038,0.023614,0.075095,0.9179082024765924,-0.3630084388071475,-0.1450410891594312,0.06806238047875253
568,14.199087142944336,0.7355,-0.0758,0.1012,-9.691,-0.64,1.236,-0.203487,0.021877,0.067653,0.9343764263104184,-0.2973748082579255,-0.1032914779721763,-0.16685259346877634
569,14.22354245185852,0.7457,-0.0848,0.118,-9.709,-0.562,1.22,-0.183745,0.023609,0.063872,0.8888348991650687,-0.24378014358975128,-0.09984958661199005,-0.3749317586854934
570,14.248569250106812,0.7403,-0.0821,0.107,-9.699,-0.501,1.131,-0.175584,0.030222,0.05936,0.8031078043636267,-0.22087306294549663,-0.1197395651768217,-0.5402734318533302
571,14.27544617652893,0.7457,-0.0875,0.1206,-9.693,-0.533,1.201,-0.148487,0.026778,0.04951,0.7043498372591004,-0.2213213224069147,-0.14354361035160076,-0.6590170035199101
572,14.303065061569214,0.7359,-0.0812,0.1033,-9.725,-0.54,1.184,-0.140293,0.022806,0.045663,0.6006015164088597,-0.23430153467489537,-0.16473086064147593,-0.7464880125552491
573,14.330970764160156,0.7446,-0.0913,0.1177,-9.741,-0.533,1.309,-0.132298,0.012964,0.045898,0.48306606964245186,-0.2464145495193869,-0.19318694989073998,-0.8176832177177566
574,14.348228454589844,0.7387,-0.0872,0.1062,-9.662,-0.543,1.292,-0.129813,0.011099,0.046536,0.3435379456827913,-0.2670534861726041,-0.23583220609468142,-0.8689345694398526
575,14.37520694732666,0.745,-0.0926,0.1182,-9.702,-0.607,1.209,-0.139489,0.010066,0.042387,0.20385289326022865,-0.3086505532858398,-0.26426706500526054,-0.8906973404132765
576,14.398638248443604,0.7353,-0.0869,0.1011,-9.71,-0.602,1.154,-0.128559,0.009121,0.034833,0.08657284113244382,-0.3592624880972067,-0.2673987090076003,-0.889906477246643
577,14.423059701919556,0.7445,-0.094,0.1187,-9.681,-0.541,1.166,-0.135326,0.01137,0.026572,-0.004667123679955629,-0.40421176102129114,-0.2422108992022248,-0.8820005388412596
578,14.448080778121948,0.7383,-0.092,0.1057,-9.684,-0.46,1.137,-0.145913,0.006959,0.020944,-0.0864046739964099,-0.43445361419181,-0.19097035399107737,-0.875964961242041
579,14.47598123550415,0.7455,-0.0958,0.1211,-9.715,-0.49,1.174,-0.101364,0.007141,0.021737,-0.1620754167882425,-0.4615705073883597,-0.1516791703974138,-0.8588816305229271
580,14.499648332595825,0.7347,-0.0901,0.1014,-9.713,-0.532,1.182,-0.080427,0.008573,0.022207,-0.21867075543569886,-0.4894633138108603,-0.1280128990762994,-0.8343988631467285
581,14.523416519165039,0.7444,-0.0985,0.1177,-9.707,-0.562,1.134,-0.071788,0.009777,0.023631,-0.26978555903264045,-0.5179761227576272,-0.10370673365175612,-0.805084717148267
582,14.548076152801514,0.7388,-0.0945,0.1049,-9.681,-0.643,1.152,-0.043361,0.010579,0.019973,-0.3055015159271881,-0.5458213320588412,-0.08496265188664665,-0.7755831644769571
583,14.576227903366089,0.7444,-0.0993,0.1182,-9.669,-0.665,1.175,-0.048757,0.005712,0.01668,-0.328658730635662,-0.5697946266644849,-0.07092952306201566,-0.74985766980103
584,14.598531246185303,0.7363,-0.0896,0.1027,-9.695,-0.634,1.136,-0.06328,0.005352,0.010474,-0.35706619276946683,-0.5777152254570626,-0.0427935861414806,-0.7327465873283648
585,14.623962879180908,0.7457,-0.0993,0.1187,-9.714,-0.581,1.089,-0.07093,0.003098,0.010264,-0.3885364922902532,-0.5780620221890547,-0.007736283660645826,-0.7175122595305315
586,14.650880098342896,0.7403,-0.0947,0.1046,-9.706,-0.626,1.101,-0.06459,-0.000293,0.013797,-0.4198884256717831,-0.5843438277820812,0.02069583842135181,-0.6941236800397277
587,14.676488399505615,0.7462,-0.0999,0.1201,-9.695,-0.608,1.051,-0.077004,0.003857,0.017746,-0.4528144800848368,-0.5924326998066969,0.05399352811318814,-0.664128934580581
588,14.698758840560913,0.737,-0.0934,0.1009,-9.702,-0.597,1.101,-0.064231,0.002592,0.01918,-0.481377851624567,-0.6050966186151023,0.08700967785706532,-0.6281423103605548
589,14.722790718078613,0.7462,-0.1001,0.1163,-9.699,-0.595,1.047,-0.064572,0.003912,0.018312,-0.5055711587493241,-0.6159345508787097,0.12355418452995989,-0.591402397661562
590,14.749269008636475,0.741,-0.0969,0.1041,-9.711,-0.632,1.032,-0.034629,0.004823,0.009173,-0.520022262422518,-0.6180699664208134,0.15126626239318,-0.5698112679257388
591,14.773728370666504,0.7469,-0.1037,0.1193,-9.727,-0.659,0.962,-0.036555,0.013796,0.004576,-0.5293678309449688,-0.6094051427452511,0.17114982583549332,-0.564891855732351
592,14.799113988876343,0.7383,-0.0926,0.1003,-9.688,-0.584,0.991,-0.039818,0.016116,-0.00158,-0.5405506075853675,-0.5802457935031824,0.1946529926827435,-0.5772608354986539
593,14.823348999023438,0.7477,-0.1004,0.1171,-9.681,-0.507,1.054,-0.024866,0.012417,-0.002695,-0.5459871545380193,-0.5539151449769454,0.2131513110801229,-0.5913058073699863
594,14.850184917449951,0.7426,-0.0963,0.1065,-9.714,-0.519,1.122,-0.021118,0.007208,0.002323,-0.5503330210008072,-0.5384287287446619,0.22872118515756765,-0.5957471691234882
595,14.876175880432129,0.7477,-0.101,0.1182,-9.689,-0.567,1.161,-0.021502,0.001758,0.007258,-0.5552291177666212,-0.5374190105623036,0.23943543869597683,-0.5878538122414445
596,14.901553869247437,0.7398,-0.0926,0.1001,-9.696,-0.592,1.13,-0.024029,-0.003021,0.007059,-0.5646965544463494,-0.542696232305921,0.24815191715105975,-0.5701045753645839
597,14.923242807388306,0.7487,-0.1023,0.1187,-9.685,-0.583,1.025,-0.025258,-0.000855,0.002775,-0.5748031195996911,-0.542077189887562,0.25739390791529865,-0.5563291023038053
598,14.953147411346436,0.7424,-0.0963,0.1038,-9.667,-0.627,1.036,-0.008252,3.5e-05,-0.002161,-0.5803711120837128,-0.5349636984385815,0.2645966316826071,-0.5540503913127827
599,14.974796295166016,0.748,-0.1018,0.1177,-9.674,-0.628,1.08,0.000456,-0.006561,-0.010236,-0.581508453849508,-0.5241947042459469,0.26148976010282365,-0.5645271787110222
600,15.000216722488403,0.7401,-0.0934,0.1006,-9.682,-0.601,1.122,-0.013918,-0.009468,-0.014491,-0.5875345230936924,-0.5053325117793612,0.25822218284916915,-0.5768566034955649
601,15.024794816970825,0.748,-0.101,0.1158,-9.686,-0.481,1.061,-0.038266,-0.008334,-0.015858,-0.5995664984065723,-0.47287766650601026,0.26557848174474885,-0.5885361471842376
602,15.049463748931885,0.7424,-0.0961,0.1041,-9.755,-0.482,1.063,-0.00979,-0.004142,-0.015068,-0.6045630491458848,-0.441995067599281,0.2765307800749635,-0.6022247151159356
603,15.073208332061768,0.7492,-0.1026,0.1182,-9.783,-0.523,1.101,0.033096,0.001409,-0.019113,-0.5865896378900924,-0.423290298211248,0.27733947949283316,-0.6323137933612135
604,15.097508907318115,0.7399,-0.092,0.0996,-9.724,-0.521,1.061,0.050643,0.008014,-0.021377,-0.5460623447457701,-0.40851195107649885,0.28037322072586085,-0.6755181408209786
605,15.123469829559326,0.7488,-0.0993,0.118,-9.695,-0.528,1.07,0.0447,0.003257,-0.022972,-0.4972007610353494,-0.3950864298951613,0.29058391955995394,-0.7157227828089164
606,15.148927450180054,0.7427,-0.0936,0.1049,-9.703,-0.565,1.015,0.042705,0.001981,-0.020369,-0.4480308730457295,-0.3876858329716307,0.300372189155622,-0.7474921937337096
607,15.174562454223633,0.7486,-0.098,0.1198,-9.715,-0.634,1.069,0.044604,0.001229,-0.017523,-0.40107624357677996,-0.38660205047472074,0.3091222672320767,-0.7707918819683959
608,15.200487613677979,0.7412,-0.0904,0.1012,-9.688,-0.676,1.075,0.032465,-0.001541,-0.01522,-0.360702008731653,-0.38787499841196565,0.3145457687284372,-0.7877233054054606
609,15.22459101676941,0.7504,-0.0988,0.119,-9.654,-0.7,1.138,0.03375,-0.00715,-0.011304,-0.33142038943287844,-0.38927147725156586,0.3135646967296626,-0.8001908668757584
610,15.24756383895874,0.7432,-0.0936,0.1046,-9.68,-0.684,1.11,0.025981,-0.014841,-0.009598,-0.31367568023772663,-0.3863498315052501,0.30218409694429815,-0.8130351449213147
611,15.272298574447632,0.7504,-0.0985,0.1185,-9.704,-0.669,1.117,0.02215,-0.016446,-0.008695,-0.30736833268017866,-0.3795915606636963,0.2885229338619838,-0.8235225994312357
612,15.313589811325073,0.7412,-0.0891,0.1001,-9.67,-0.731,1.117,0.027066,-0.016175,-0.003573,-0.30371590614666344,-0.37542112109378806,0.26437586156645393,-0.8348179645953898
613,15.323864698410034,0.7509,-0.0958,0.1169,-9.714,-0.765,1.173,0.011319,-0.014104,0.001458,-0.31494649385242074,-0.3732117730787628,0.23553016161919507,-0.8402661610544061
614,15.347500801086426,0.7442,-0.0934,0.1039,-9.715,-0.805,1.11,-0.003348,-0.007924,0.003409,-0.3310242939270588,-0.3720952980182856,0.21584532568781678,-0.8398683238469563
615,15.375293493270874,0.7512,-0.0972,0.118,-9.701,-0.789,1.081,-0.01326,-0.00693,0.002325,-0.3438848129737535,-0.3702739625638112,0.20833321768959015,-0.8373993661690948
616,15.397049188613892,0.7417,-0.0899,0.1015,-9.686,-0.733,1.113,-0.033807,-0.006953,0.001681,-0.3599683550865028,-0.36326639411594747,0.21305179747437325,-0.8325078028674885
617,15.42311692237854,0.7509,-0.0969,0.1183,-9.719,-0.724,1.149,-0.035298,-0.006757,0.005536,-0.3833664240782426,-0.35567427938500196,0.21857994767189015,-0.8238621233854452
618,15.448439359664917,0.7448,-0.0912,0.1033,-9.724,-0.629,1.148,-0.044051,-0.00092,0.011164,-0.41573677592966946,-0.3538723518021719,0.219815187059541,-0.8084668053220136
619,15.475558996200562,0.7519,-0.0985,0.1169,-9.697,-0.641,1.178,-0.052016,-0.000387,0.015023,-0.45401583912042304,-0.355458071922614,0.22237929971535025,-0.7861721338173635
620,15.498730659484863,0.743,-0.0899,0.0999,-9.706,-0.639,1.069,-0.056633,3.7e-05,0.016232,-0.49721122905235865,-0.359709347899901,0.22463121450218682,-0.7569220542492756
621,15.523633241653442,0.7522,-0.0985,0.1172,-9.728,-0.649,1.116,-0.056355,-0.005746,0.017308,-0.5454722981232204,-0.3677690122610904,0.22372531842877208,-0.7191334420638628
622,15.547415256500244,0.7452,-0.095,0.1023,-9.694,-0.65,1.144,-0.042396,-0.006107,0.016833,-0.5877133473256761,-0.38196002333311446,0.21721424473697704,-0.679350817938685
623,15.575995922088623,0.7527,-0.0991,0.118,-9.698,-0.642,1.127,-0.058653,-0.001884,0.017853,-0.6251167146306346,-0.39490916379886165,0.22111466607899283,-0.6359120614376341
624,15.602852582931519,0.7443,-0.092,0.1007,-9.671,-0.608,1.09,-0.052868,-0.003786,0.01797,-0.6581179957905339,-0.40803385140814025,0.22990240886909113,-0.5895201117161989
625,15.623197793960571,0.7532,-0.1012,0.1132,-9.695,-0.562,1.129,-0.063802,-0.008156,0.018684,-0.6887812392327218,-0.42346779155871095,0.24114697699044096,-0.5367528010935723
626,15.64827823638916,0.7463,-0.095,0.1012,-9.718,-0.603,1.178,-0.063903,-0.013858,0.021435,-0.7190458601937677,-0.4461815396151221,0.2570860751272445,-0.4666924411435785
627,15.674010276794434,0.7526,-0.1023,0.1153,-9.68,-0.614,1.151,-0.052819,-0.015583,0.026011,-0.732573390737794,-0.48741376174758777,0.2773554176441694,-0.3857953140532234
628,15.6985182762146,0.7437,-0.0947,0.0999,-9.688,-0.618,1.092,-0.047004,-0.008891,0.027323,-0.7247808217220783,-0.5290051927805671,0.31646655635323906,-0.3077258279458942
629,15.724398136138916,0.7545,-0.1015,0.1132,-9.712,-0.587,1.084,-0.052259,-0.012988,0.022866,-0.7041665446226152,-0.5584185671122618,0.3671072726380086,-0.23989671051270733
630,15.751028776168823,0.747,-0.0985,0.0978,-9.711,-0.598,1.135,-0.031708,-0.01194,0.018382,-0.6771664034412148,-0.575453607509483,0.4175733367079949,-0.1895555752948548
631,15.774781703948975,0.7534,-0.1045,0.1135,-9.668,-0.615,1.149,-0.02982,-0.006176,0.017531,-0.6460092540602091,-0.5852393884254863,0.46418205178584837,-0.15716845963428833
632,15.801295518875122,0.7442,-0.0944,0.0985,-9.708,-0.601,1.146,-0.031275,-0.001836,0.013072,-0.6246863608779232,-0.5828178111693119,0.5012713725378939,-0.13717638496069648
633,15.82548713684082,0.7528,-0.105,0.114,-9.681,-0.584,1.164,-0.022911,0.00263,0.010338,-0.6148791839520467,-0.5726320172611019,0.527713740010527,-0.12463695500953259
634,15.851060152053833,0.7469,-0.1009,0.0946,-9.674,-0.583,1.202,-0.018252,-0.003456,0.005489,-0.6039834214078539,-0.5678929802643461,0.547090323959864,-0.11573144369804131
635,15.877696990966797,0.7549,-0.1061,0.1122,-9.671,-0.581,1.214,-0.027461,-0.004901,0.004774,-0.5960704315508347,-0.5612792533218168,0.5648011093220755,-0.10327316848948814
636,15.898900747299194,0.7447,-0.0971,0.0969,-9.683,-0.531,1.178,-0.016506,-0.007997,0.004823,-0.5855281505056288,-0.5544463597775522,0.5842931366421845,-0.09136492525973053
637,15.923934936523438,0.7554,-0.105,0.1114,-9.718,-0.541,1.149,-0.005494,-0.008821,0.006498,-0.5622751090447138,-0.5516217143939839,0.6101949363201263,-0.08498426705616932
638,15.948577165603638,0.7457,-0.0998,0.0988,-9.725,-0.556,1.17,-0.008757,-0.00598,0.003578,-0.5452768560781195,-0.5475135961677364,0.6294310726182186,-0.08196668261991194
639,15.97586703300476,0.7544,-0.1058,0.1135,-9.697,-0.563,1.194,-0.008707,-0.009802,0.000535,-0.530342593076936,-0.5456972046468328,0.644231290543782,-0.07692424255953004
640,15.997758626937866,0.745,-0.0955,0.0959,-9.71,-0.549,1.185,-0.012446,-0.013113,0.000439,-0.5122463684550616,-0.542286432557561,0.66223354759415,-0.07053943230181148
641,16.025150060653687,0.7541,-0.1053,0.1103,-9.708,-0.524,1.147,-0.001265,-0.012479,0.00305,-0.48794223635636014,-0.534778515842085,0.6864089854748789,-0.0690435922634253
642,16.047937393188477,0.7475,-0.0985,0.0962,-9.697,-0.551,1.198,0.018406,-0.014311,-0.001205,-0.45856467825076686,-0.5347854005418737,0.7053820725412346,-0.0784802074759672
643,16.073216676712036,0.7554,-0.1063,0.1106,-9.722,-0.594,1.15,0.023062,-0.012043,-0.007828,-0.4381914628038117,-0.5429113031763031,0.7113477442786644,-0.08497026255649731
644,16.099767923355103,0.746,-0.0969,0.0954,-9.699,-0.592,1.21,0.031059,-0.006998,-0.012163,-0.4351138164313216,-0.5637611409710841,0.6968670103236135,-0.08500419168594259
645,16.123437643051147,0.7541,-0.1047,0.1137,-9.704,-0.632,1.213,0.03636,-0.007956,-0.013611,-0.4353551465083674,-0.5906726338041787,0.6739838901629595,-0.08554210591466926
646,16.14942455291748,0.7467,-0.0985,0.0964,-9.674,-0.587,1.199,0.034081,-0.003631,-0.010733,-0.4385772273664308,-0.6154894156632781,0.6492409419324592,-0.08549265559510713
647,16.17258858680725,0.7552,-0.1047,0.1116,-9.701,-0.577,1.187,0.033202,-0.007374,-0.008444,-0.4336600589362482,-0.6351585117004185,0.6327288380406554,-0.090370547246551
648,16.198771715164185,0.7447,-0.0952,0.0932,-9.657,-0.618,1.169,0.043968,-0.007705,-0.008347,-0.4233791552600283,-0.6563504969827466,0.6167384453197035,-0.09791734303197547
649,16.226667642593384,0.7547,-0.1028,0.1079,-9.69,-0.617,1.161,0.02737,-0.006072,-0.011725,-0.42118019539117846,-0.6770661246836923,0.5951015689017848,-0.10021391373801222
650,16.247823476791382,0.747,-0.0979,0.0975,-9.703,-0.602,1.151,0.031342,-0.007005,-0.012986,-0.429335623594804,-0.6965021473462139,0.5665203031494199,-0.09803278622003422
651,16.275340795516968,0.7547,-0.1026,0.1135,-9.67,-0.605,1.233,0.044994,-0.005393,-0.011558,-0.42950297305331187,-0.7187303339426196,0.5371699929942227,-0.10199167532540637
652,16.299333333969116,0.7458,-0.0947,0.0948,-9.695,-0.606,1.23,0.046819,-0.006384,-0.013108,-0.43147876283486414,-0.741672953425444,0.5019152883894762,-0.10875822111722358
653,16.322537422180176,0.7547,-0.1023,0.1092,-9.726,-0.617,1.162,0.048246,-0.006864,-0.011578,-0.42878541221230626,-0.7633412396212222,0.4692393649834297,-0.1151852443562369
654,16.348006010055542,0.7463,-0.0942,0.0938,-9.689,-0.66,1.195,0.056117,-0.004308,-0.012597,-0.4308425100865846,-0.7844480657103838,0.4284220700923128,-0.12438043882920738
655,16.37308120727539,0.7555,-0.1031,0.1111,-9.687,-0.644,1.173,0.037017,-0.007418,-0.015089,-0.43375670409153333,-0.8027359504427793,0.3878620775769832,-0.13051101217921754
656,16.3996262550354,0.7458,-0.0928,0.0933,-9.696,-0.583,1.16,0.02897,-0.004497,-0.01428,-0.453966871742732,-0.8106740275107628,0.3441516868782229,-0.135208420220305
657,16.424336194992065,0.755,-0.1007,0.1101,-9.675,-0.598,1.225,0.040269,-0.004154,-0.014631,-0.47167075794260077,-0.8175051589970107,0.29696351802206106,-0.1449988968202372
658,16.44919228553772,0.7468,-0.0947,0.0941,-9.68,-0.606,1.201,0.046157,-0.003896,-0.015891,-0.4839440037884642,-0.824111298654855,0.2477635735669274,-0.15890871668962964
659,16.473644495010376,0.7555,-0.0999,0.1103,-9.683,-0.587,1.221,0.047365,-0.005045,-0.01794,-0.5007813688711512,-0.8252001754059511,0.19253154979013953,-0.17661906306209
660,16.49801278114319,0.7459,-0.0904,0.0962,-9.723,-0.6,1.198,0.053629,-0.001964,-0.018953,-0.5209978320041396,-0.8187100119240894,0.1317870082962337,-0.20225567944206632
661,16.521636486053467,0.7548,-0.0985,0.1109,-9.698,-0.634,1.196,0.058058,0.001036,-0.021801,-0.5483275388185083,-0.7974054075966408,0.05754024628429523,-0.24529705698686088
662,16.54875683784485,0.7466,-0.092,0.0943,-9.71,-0.634,1.205,0.047397,-0.003511,-0.021782,-0.5747390457857697,-0.762898127231025,-0.012239950178438347,-0.2958236980640446
663,16.575075387954712,0.7554,-0.0956,0.1125,-9.698,-0.632,1.244,0.053462,-0.001442,-0.018311,-0.5836065466089763,-0.7353693469947367,-0.06663602561523072,-0.337927451305581
664,16.597389221191406,0.7454,-0.0896,0.0943,-9.695,-0.66,1.269,0.050574,-0.002142,-0.016152,-0.5848067276937693,-0.7094518986302191,-0.11213245765754482,-0.37696870787077497
665,16.623530864715576,0.7566,-0.0961,0.1122,-9.69,-0.694,1.204,0.038655,-0.002863,-0.016802,-0.5865289424196279,-0.6778197395237897,-0.15144114716508764,-0.4166650685638731
666,16.64932918548584,0.7464,-0.0893,0.0943,-9.673,-0.635,1.196,0.028358,-0.003433,-0.015524,-0.5901325221538771,-0.6374510163775905,-0.182660682826462,-0.46047245624993816
667,16.674454927444458,0.7567,-0.0947,0.1138,-9.677,-0.631,1.231,0.034654,-0.003495,-0.014852,-0.5877361576690486,-0.6033172255042375,-0.20851582435752947,-0.4970872009726184
668,16.697774171829224,0.746,-0.0845,0.0943,-9.699,-0.654,1.293,0.03434,-0.003585,-0.012533,-0.5788615608643232,-0.5732892189301704,-0.23320488086175145,-0.5309183066672414
669,16.722776651382446,0.7567,-0.0939,0.1109,-9.68,-0.686,1.203,0.026963,-0.000922,-0.01166,-0.5702765491773524,-0.5403500667582667,-0.2505825601479271,-0.5656985445998759
670,16.747456073760986,0.7467,-0.088,0.0954,-9.692,-0.669,1.194,0.024157,-0.00329,-0.013608,-0.5588519058899422,-0.49523301970337025,-0.26228086422031843,-0.611258989089325
671,16.77491044998169,0.7554,-0.0937,0.1117,-9.719,-0.696,1.225,0.029656,-0.004706,-0.012509,-0.5440460409390993,-0.45510471296812266,-0.272566506009873,-0.6500777687125321
672,16.79790210723877,0.7478,-0.0839,0.093,-9.663,-0.687,1.262,0.015015,-0.001853,-0.011489,-0.5274994682547397,-0.41548608667462744,-0.2763455478145964,-0.6875672774164151
673,16.824787616729736,0.7565,-0.0931,0.112,-9.684,-0.582,1.22,-0.001897,0.000693,-0.011055,-0.5103681700650095,-0.36897563262081035,-0.2628136893938873,-0.7309653057319067
674,16.8473539352417,0.7472,-0.0858,0.0957,-9.684,-0.581,1.266,0.021957,-0.003816,-0.008854,-0.4967028184441017,-0.3452864400679836,-0.2599604073720617,-0.7526514273246391
675,16.88038182258606,0.7565,-0.0918,0.1109,-9.656,-0.66,1.225,0.038615,-0.002863,-0.006408,-0.48272023194689745,-0.33899811317846995,-0.27446161991731277,-0.7594289144633192
676,16.900591373443604,0.7478,-0.0842,0.096,-9.697,-0.699,1.224,0.033639,-0.006809,-0.009153,-0.464588568528221,-0.32693810195096107,-0.28812998433639975,-0.7708761584145066
677,16.924705982208252,0.7562,-0.091,0.1104,-9.717,-0.691,1.162,0.019858,-0.007199,-0.012585,-0.4448294178812992,-0.29859890923453125,-0.28885210812797224,-0.7934292281113412
678,16.94866681098938,0.7478,-0.0847,0.096,-9.716,-0.664,1.179,0.022061,-0.003504,-0.013726,-0.4163199471070145,-0.2630972086055342,-0.2792711935563682,-0.8242967675020871
679,16.97653841972351,0.757,-0.0907,0.1122,-9.687,-0.647,1.179,0.021596,-0.000207,-0.016252,-0.3745364950323603,-0.22019331983162804,-0.2560813315777998,-0.8635158755968196
680,16.999672174453735,0.7486,-0.0837,0.0949,-9.658,-0.647,1.267,0.035629,-0.000802,-0.015581,-0.3254318460181061,-0.18175312206104993,-0.2318951828497606,-0.8984901448482253
681,17.026434183120728,0.7571,-0.0891,0.1117,-9.69,-0.657,1.247,0.030314,-0.002227,-0.014154,-0.27669274379538583,-0.14987820356545972,-0.21060809770562627,-0.9255386965480097
682,17.061177015304565,0.747,-0.0831,0.096,-9.674,-0.655,1.248,0.030977,-0.00294,-0.013431,-0.2291826087823739,-0.12353591690896044,-0.1875418109778234,-0.9471231589399163
683,17.072988510131836,0.757,-0.091,0.1125,-9.644,-0.667,1.255,0.031565,-0.006763,-0.015917,-0.18177525269075043,-0.0975603578518972,-0.16491580863814959,-0.9644908035571146
684,17.099190950393677,0.7486,-0.0826,0.0965,-9.721,-0.74,1.233,0.039252,-0.006481,-0.021861,-0.11648740701282767,-0.06788451852944397,-0.1287004070788171,-0.982475740855315
685,17.123929977416992,0.7574,-0.0875,0.1112,-9.702,-0.71,1.185,0.032588,-0.002078,-0.024947,-0.024472584720577988,-0.04145497289128455,-0.06407659606949705,-0.9967832099588273
686,17.151033401489258,0.7484,-0.0818,0.0949,-9.672,-0.674,1.229,0.034984,-0.001548,-0.0235,0.07926260925998116,-0.030447993169079316,0.013330058526270373,-0.9962994871146735
687,17.172695875167847,0.7584,-0.0867,0.1101,-9.649,-0.687,1.277,0.036159,-0.00596,-0.021396,0.1666997004051311,-0.029997004701098465,0.07312575931431745,-0.982834682395013
688,17.198721408843994,0.7492,-0.081,0.0955,-9.719,-0.681,1.274,0.030543,-0.007505,-0.018097,0.23044639787061008,-0.03267534504095428,0.1139683690314174,-0.96583538472932
689,17.225435256958008,0.7587,-0.0842,0.1104,-9.672,-0.697,1.216,0.039031,-0.006965,-0.019889,0.2932561575225014,-0.03967243447892201,0.15214006878076625,-0.9430166082784741
690,17.247535228729248,0.7492,-0.0793,0.096,-9.683,-0.652,1.194,0.045449,-0.006596,-0.021926,0.3631614403962303,-0.05584855171655566,0.19278913762258237,-0.9098500183520578
691,17.275341987609863,0.7582,-0.0831,0.1107,-9.677,-0.684,1.181,0.05362,-0.004369,-0.026347,0.44214278439257837,-0.08540547451076949,0.23896431420278386,-0.8602974599932057
692,17.298937559127808,0.7493,-0.0761,0.0936,-9.693,-0.752,1.275,0.06829,-0.004435,-0.029435,0.5296006054272454,-0.13503520963823645,0.2850710108960163,-0.7874155253967094
693,17.32508945465088,0.7587,-0.0842,0.108,-9.662,-0.739,1.275,0.05078,-0.005181,-0.031413,0.6080010671712606,-0.20344461434292604,0.32841975442572424,-0.6936032411374771
694,17.347613096237183,0.7493,-0.075,0.0936,-9.676,-0.707,1.277,0.055018,-0.010511,-0.029805,0.6649730075841515,-0.2721574722453279,0.35816632517784913,-0.5962030635564671
695,17.376124620437622,0.7588,-0.0815,0.1091,-9.683,-0.76,1.288,0.051937,-0.011217,-0.026218,0.7036891620432811,-0.322174224686723,0.3687792740814725,-0.5148079051241112
696,17.40131402015686,0.7483,-0.0737,0.0936,-9.645,-0.752,1.299,0.027374,-0.009774,-0.023973,0.7279215326013244,-0.37798912277257923,0.3746566365973798,-0.4323041407325332
697,17.427736282348633,0.7585,-0.0802,0.1099,-9.702,-0.703,1.234,0.019184,-0.013158,-0.022182,0.7355886720275006,-0.435488936173279,0.37975956077899287,-0.35361188901453844
698,17.453471422195435,0.7498,-0.0748,0.0947,-9.707,-0.736,1.28,0.038558,-0.012034,-0.024266,0.7410730153188527,-0.47942373495565493,0.37444727783362963,-0.2841705552135511
